subject,age,gender,ntrial,memory_ori,test_ori,cue,type,trial_type,which_change,pas,pas_rt,vis,test_key,test_acc,test,test_rt,contrast,fix_dur,cue_dur,jitter_dur,target_dur,mask_dur,retention_dur,trial_dur
10,22,female,1,105,105,left,same,valid,anti,1,1.223828196915747,0,j,0,change,2.5129225653199683,0.5,0,0,0,0.38746430979244906,0,0,6.465280348142187
10,22,female,2,75,45,right,change,catch,anti,1,1.4014218991451344,0,j,1,change,0.4295811600604793,0,0,0,0,0.3874899688944424,0,0,6.610813643714209
10,22,female,3,75,75,right,same,valid,anti,3,4.968185599984281,1,j,0,change,4.184784665607367,0.6571452603159259,0,0,0,0.38748868594029773,0,0,12.328502258963454
10,22,female,4,75,25,left,change,valid,anti,2,5.193233245729061,1,j,1,change,4.416605352103943,0.6071840821787083,0,0,0,0.3874521217194342,0,0,12.386577787813621
10,22,female,5,135,185,right,change,valid,clock,1,5.481373416271708,0,j,1,change,2.0966023499886433,0.5725780085130471,0,0,0,0.38745083876347053,0,0,10.759876348786747
10,22,female,6,15,325,left,change,valid,anti,2,5.561322367488174,1,j,1,change,3.1506760211195797,0.6362522506632667,0,0,0,0.38752525016025174,0,0,11.841463312936867
10,22,female,7,105,75,left,same,catch,anti,2,3.61748116140825,1,j,0,change,1.1096820773100262,0,0,0,0,0.3874129915884623,0,0,9.573919703688262
10,22,female,8,15,65,right,change,valid,clock,2,2.8003320929292386,1,j,1,change,2.017807737630392,0.6151179429408832,0,0,0,0.38745885723346873,0,0,7.79657143077111
10,22,female,9,105,105,right,same,valid,clock,2,3.297316827688519,1,f,1,same,1.4923051560035674,0.5979888454726552,0,0,0,0.3874521217185247,0,0,7.475079879992336
10,22,female,10,135,135,left,same,valid,clock,2,1.8334086000331808,1,f,1,same,2.636313338692162,0.5831450889552531,0,0,0,0.3874678379188481,0,0,7.761468175336631
10,22,female,11,105,155,right,change,valid,clock,2,1.4414420800294465,1,j,1,change,1.6782961201515718,0.5696706634876058,0,0,0,0.3875018362296032,0,0,6.13468911752625
10,22,female,12,75,25,right,change,valid,anti,2,6.201347295306732,1,j,1,change,1.799302842195175,0.5578374610792314,0,0,0,0.3875044021397116,0,0,11.114886384702913
10,22,female,13,165,215,left,change,valid,clock,2,0.9933982337561247,1,j,1,change,1.456902651290875,0.5471578964916826,0,0,0,0.3874845163354621,0,0,5.486484067942911
10,22,female,14,45,45,left,same,valid,anti,2,2.0094197771377367,1,f,1,same,2.1281960817268555,0.53730742706917,0,0,0,0.38753006124170497,0,0,7.417454989124053
10,22,female,15,165,115,right,same,catch,anti,1,1.2254184197709037,0,j,0,change,2.951422187810749,0,0,0,0,0.3874694416135753,0,0,8.825342982011534
10,22,female,16,135,185,left,change,valid,clock,2,1.4484418830961658,1,f,0,same,1.8741276707114594,0.5280605088768979,0,0,0,0.3874540461520155,0,0,6.4234136741206385
10,22,female,17,75,75,right,same,valid,clock,2,1.2013982927710458,1,f,1,same,1.2773014450558549,0.5192521247171494,0,0,0,0.3875092132211648,0,0,5.713899407338431
10,22,female,18,135,135,left,same,valid,anti,2,1.1374186045168244,1,f,1,same,1.913381285918149,0.5107417193043107,0,0,0,0.38742838704911264,0,0,6.530955461571466
10,22,female,19,45,45,right,same,valid,clock,2,0.8734573266674488,1,j,0,change,1.7068707377829924,0.5023905756160655,0,0,0,0.38750536435600225,0,0,5.969434236041707
10,22,female,20,165,165,left,same,valid,anti,2,0.9214834681615685,1,f,1,same,1.212055480111303,0.49409679569566717,0,0,0,0.3874412166005641,0,0,5.305343315580103
10,22,female,21,165,215,right,change,valid,clock,2,1.889378158074578,1,j,1,change,1.358507692278181,0.4857531279225177,0,0,0,0.3874976666256771,0,0,6.392105720632571
10,22,female,22,15,325,right,change,valid,anti,2,0.7614178193480257,1,j,1,change,1.4805953039995075,0.4778451947647314,0,0,0,0.38748355411917146,0,0,5.466342955710388
10,22,female,23,165,165,right,same,valid,anti,2,0.8094426778870911,1,f,1,same,1.1467758375929407,0.46968857249870005,0,0,0,0.3874784222980452,0,0,4.925373708785628
10,22,female,24,135,85,right,change,valid,anti,2,0.9693582209520173,1,j,1,change,2.6774134470369972,0.461050663696672,0,0,0,0.3874678379197576,0,0,6.721857898609414
10,22,female,25,15,15,right,same,valid,anti,2,0.617086331973951,1,f,1,same,1.7149289788121678,0.45174945399933114,0,0,0,0.38746238535986777,0,0,5.317182104571657
10,22,female,26,45,45,left,same,valid,clock,2,0.5774500754050678,1,f,1,same,1.687493625316165,0.44151865354741704,0,0,0,0.3875489848296638,0,0,5.188346790462674
10,22,female,27,75,75,left,same,valid,clock,2,0.6094633334632817,1,f,1,same,1.3649057893990175,0.4299722034141161,0,0,0,0.38748547855266224,0,0,4.783983395995165
10,22,female,28,45,95,right,change,valid,clock,2,0.8014537164326612,1,j,1,change,1.1210169856840366,0.41629522209805764,0,0,0,0.38745693280088744,0,0,4.873190151266499
10,22,female,29,135,355,right,same,catch,anti,1,1.4734611113854044,0,j,0,change,0.9669635852433203,0,0,0,0,0.38749157258916966,0,0,7.031813758539101
10,22,female,30,165,165,left,same,valid,clock,2,1.2403250751649466,1,f,1,same,1.406719541523671,0.40012196917702625,0,0,0,0.3875268538540695,0,0,6.070821367104145
10,22,female,31,135,135,right,same,valid,clock,2,1.0734427651277656,1,f,1,same,1.625308149779812,0.37824513614463895,0,0,0,0.3873728992411998,0,0,5.9291677277778945
10,22,female,32,135,85,left,change,valid,anti,2,2.313462496977081,1,f,0,same,2.036865073536319,0.34900956635683933,0,0,0,0.38751594873519934,0,0,7.8327366522953525
10,22,female,33,75,75,left,same,valid,anti,2,2.345013249719159,1,f,1,same,2.5773612307648364,0.3095840961851928,0,0,0,0.38747874303680874,0,0,7.792301114695874
10,22,female,34,105,105,right,same,valid,anti,1,2.337343423348102,0,f,1,same,1.326490906093568,0.2658164689103602,0,0,0,0.3875483433521367,0,0,6.774960051985545
10,22,female,35,105,165,right,change,catch,clock,1,6.257516673605096,0,j,1,change,2.088883771323708,0,0,0,0,0.38738252140410623,0,0,12.943721570517482
10,22,female,36,75,115,right,change,catch,clock,1,1.8644272471437944,0,f,0,same,1.2118870922522547,0,0,0,0,0.387483874857935,0,0,7.703192826227678
10,22,female,37,135,135,right,same,valid,anti,1,1.7284894935601187,0,f,1,same,1.3699099557961745,0.3528831669680035,0,0,0,0.38753134419675916,0,0,6.017662122225374
10,22,female,38,75,125,right,change,valid,clock,2,1.1613319255038732,1,j,1,change,1.839777509925625,0.39439089544927364,0,0,0,0.38752075981756207,0,0,6.217247920169939
10,22,female,39,15,15,left,same,valid,anti,2,1.4574719626198203,1,f,1,same,1.2851399800247236,0.3839998096567414,0,0,0,0.38746238535986777,0,0,6.280437308078035
10,22,female,40,45,185,left,same,catch,anti,1,0.6014156768133034,0,j,0,change,3.113236183695335,0,0,0,0,0.38745821575594164,0,0,8.46669191949968
10,22,female,41,15,15,left,same,valid,clock,1,1.7602708574822827,0,j,0,change,1.2763395494639553,0.37322641643107723,0,0,0,0.3874267833562044,0,0,6.703622295450259
10,22,female,42,45,45,right,same,valid,anti,2,0.8894160052495863,1,f,1,same,1.6172553613087075,0.3987107570879266,0,0,0,0.3874505180256165,0,0,5.777754648948758
10,22,female,43,105,105,left,same,valid,clock,2,0.5533401415486878,1,f,1,same,1.6657526680655792,0.3914430649442213,0,0,0,0.387550267784718,0,0,5.452596733211067
10,22,female,44,105,55,right,change,valid,anti,1,0.7133923193332521,0,j,1,change,1.0928349523164798,0.38394657104354823,0,0,0,0.3874293492654033,0,0,4.615057338471161
10,22,female,45,105,155,left,change,valid,clock,1,1.1852564723485557,0,j,1,change,1.5594072362519,0.40233761449030325,0,0,0,0.38753647601788543,0,0,6.0114981644119325
10,22,female,46,105,185,left,same,catch,clock,1,4.153406470328264,0,j,0,change,1.173226843782686,0,0,0,0,0.38750151549083967,0,0,10.307295652513858
10,22,female,47,165,125,left,same,catch,clock,2,4.314471541169041,1,j,0,change,0.9856017155670997,0,0,0,0,0.3874553291070697,0,0,10.354476647329648
10,22,female,48,45,355,right,change,valid,anti,2,2.7603670791149852,1,f,0,same,1.6106263322681116,0.4170740631614084,0,0,0,0.387490610372879,0,0,8.004064401780852
10,22,female,49,45,355,left,change,valid,anti,2,0.7774156280611351,1,f,0,same,1.170171486194704,0.41243359229239696,0,0,0,0.3874248589236231,0,0,4.90363884557155
10,22,female,50,165,115,right,change,valid,anti,1,0.6413373908926587,0,j,1,change,2.6658613985109696,0.40759608540080516,0,0,0,0.38749349702084146,0,0,6.468176940036756
10,22,female,51,105,55,left,change,valid,anti,1,2.5774580938759755,0,j,1,change,1.8345305442744575,0.42020898891908837,0,0,0,0.38746238535986777,0,0,7.216813639865904
10,22,female,52,15,15,right,same,valid,clock,1,1.4334197617417885,0,j,0,change,1.6944870136076133,0.43092146904973605,0,0,0,0.3874995910582584,0,0,6.2803365961017334
10,22,female,53,15,65,left,change,valid,clock,1,1.7374698585736041,0,f,0,same,1.1558036719461597,0.44041958516164476,0,0,0,0.3874335188702389,0,0,6.263770438276879
10,22,female,54,75,125,left,change,valid,clock,1,1.0894126695666273,0,f,0,same,2.14055671270944,0.449080271014245,0,0,0,0.3874527631969613,0,0,6.38210219892062
10,22,female,55,165,115,left,change,valid,anti,1,0.8975335829527467,0,j,1,change,1.0880851317688212,0.45719853283361217,0,0,0,0.38752525016025174,0,0,5.433343746652099
10,22,female,56,45,95,left,change,valid,clock,1,1.417451460997654,0,j,1,change,1.3334971239346487,0.46496444778117796,0,0,0,0.3874460276829268,0,0,6.203310216620594
10,22,female,57,135,215,left,change,catch,anti,1,0.8734483459820694,0,j,1,change,1.5686820394630558,0,0,0,0,0.38754577744202834,0,0,7.375377268986085
10,22,female,58,165,165,right,same,valid,clock,2,1.4395824366010856,1,f,1,same,1.7669572987633728,0.4719458313741154,0,0,0,0.3874299907438399,0,0,6.764634187802585
10,22,female,1,45,95,left,change,valid,clock,1,2.2075365914834038,0,f,0,same,1.5951186124066226,0.46934253629088796,0,0,0,0.38747681860513694,0,0,6.881493436721939
10,22,female,2,45,45,left,same,valid,anti,2,2.4974132417646615,1,f,1,same,0.9743688021244452,0.4761503813609897,0,0,0,0.38748612002927985,0,0,6.312090055750559
10,22,female,3,165,115,right,change,valid,anti,1,1.4014212576685168,0,f,0,same,3.1203896206361605,0.47385066988808555,0,0,0,0.3875063265722929,0,0,7.671573435388382
10,22,female,4,45,185,left,same,catch,anti,1,2.465090791525654,0,f,1,same,1.7473261611858106,0,0,0,0,0.3874514802409976,0,0,9.121573788201204
10,22,female,5,15,15,left,same,valid,anti,2,1.5685976851646046,1,f,1,same,1.0397244597315876,0.4800619938554772,0,0,0,0.38749413849927805,0,0,6.132076379449245
10,22,female,6,75,75,right,same,valid,clock,1,1.3454462470672297,0,j,0,change,1.660597112965661,0.4777653528709658,0,0,0,0.38747489417255565,0,0,6.487754834975931
10,22,female,7,105,55,left,change,valid,anti,1,2.0894457056601823,0,f,0,same,1.1608777593964987,0.48398916403732206,0,0,0,0.38755636182122544,0,0,6.72527408732185
10,22,female,8,105,155,right,change,valid,clock,1,1.377504087815396,0,f,0,same,1.4230759361889795,0.489710611237116,0,0,0,0.38678690949564043,0,0,5.59242376520433
10,22,female,9,15,65,left,change,valid,clock,1,0.7774810587716274,0,f,0,same,0.9648143146996517,0.49550753462655445,0,0,0,0.3875230049889069,0,0,5.0463069816487405
10,22,female,10,105,105,left,same,valid,clock,2,4.0414917303924085,1,f,1,same,0.7822744997920381,0.5013908642424751,0,0,0,0.38751209987094626,0,0,7.838352467540062
10,22,female,11,105,105,left,same,valid,anti,1,1.4894454490695352,0,j,0,change,1.1882771901482556,0.49930791964176213,0,0,0,0.3874691208739023,0,0,6.166110612540251
10,22,female,12,75,45,right,change,catch,anti,2,1.8814889463801592,1,j,1,change,1.087417674374592,0,0,0,0,0.3874611024048136,0,0,7.827633377616621
10,22,female,13,135,135,right,same,valid,anti,2,1.496520625748417,1,f,1,same,1.4290156975966966,0.5047942569144024,0,0,0,0.3874187648862062,0,0,5.970399659760005
10,22,female,14,75,125,right,change,valid,clock,2,1.289348072777102,1,f,0,same,3.491593757396913,0.5028170255170471,0,0,0,0.3874918933279332,0,0,7.9847745302613475
10,22,female,15,45,45,left,same,valid,clock,2,1.2894744438553971,1,f,1,same,1.1747503529732057,0.5008719834670863,0,0,0,0.38741716119238845,0,0,5.949239560433853
10,22,female,16,135,185,right,change,valid,clock,2,1.0414708823709589,1,j,1,change,1.2376032859046973,0.4989537498605371,0,0,0,0.38745629132336035,0,0,5.6916927373840736
10,22,female,17,165,125,left,same,catch,clock,2,0.7373810139324632,1,f,1,same,2.8538159254503626,0,0,0,0,0.3874691208739023,0,0,8.435205955990568
10,22,female,18,45,355,right,change,valid,anti,2,1.9441144755182904,1,j,1,change,2.4237729015503646,0.4971391395071897,0,0,0,0.38742261375136877,0,0,7.6521908703634836
10,22,female,19,45,45,right,same,valid,anti,1,2.009444153284676,0,f,1,same,1.538487049530886,0.4954093671866396,0,0,0,0.38741459528228006,0,0,6.494639813561662
10,22,female,20,15,15,right,same,valid,anti,2,3.0334469603903926,1,f,1,same,1.377700059209019,0.5004242367516379,0,0,0,0.3875162694739629,0,0,7.491346788538976
10,22,female,21,75,115,right,change,catch,clock,2,0.6414332917865977,1,f,0,same,1.4822410146634866,0,0,0,0,0.38744763137674454,0,0,6.938438040645451
10,22,female,22,75,75,right,same,valid,anti,2,1.232338038143098,1,j,0,change,1.8514633065215094,0.4986508864801744,0,0,0,0.3874896481556789,0,0,6.434473067885847
10,22,female,23,15,15,right,same,valid,clock,2,6.217322331565811,1,f,1,same,4.303393865294311,0.4969741009338489,0,0,0,0.3874797052540089,0,0,13.830811257417736
10,22,female,24,75,125,left,change,valid,clock,2,4.129452094776752,1,f,0,same,1.120823259462668,0.4953704050444737,0,0,0,0.3875024777071303,0,0,8.384040423349688
10,22,female,25,75,25,left,change,valid,anti,2,0.7454402171788388,1,f,0,same,3.079916556599528,0.4938171374072735,0,0,0,0.3875143450413816,0,0,6.96528612144084
10,22,female,26,165,165,right,same,valid,anti,2,0.4813750199664355,1,f,1,same,1.1618399757262523,0.4921875326396267,0,0,0,0.38749477997589565,0,0,5.0466723031158836
10,22,female,27,105,155,left,change,valid,clock,2,3.745371258341038,1,j,1,change,3.9462271818410954,0.490566487384007,0,0,0,0.3874665549647034,0,0,10.805990245692556
10,22,female,28,45,355,left,change,valid,anti,2,3.0014673799041702,1,f,0,same,0.8992383095528567,0.48896003398677623,0,0,0,0.38747425269502855,0,0,7.058305177814873
10,22,female,29,165,165,left,same,valid,clock,1,1.0012646729974222,0,f,1,same,1.6580886149922662,0.48743484008668864,0,0,0,0.3874514802409976,0,0,5.940970594027931
10,22,female,30,15,15,left,same,valid,clock,2,1.001578676259669,1,j,0,change,1.0094476814110749,0.49173771316425174,0,0,0,0.3874976666256771,0,0,5.412339205632634
10,22,female,31,105,105,right,same,valid,clock,2,3.0413647178365864,1,f,1,same,2.3678562654076813,0.49020904843117585,0,0,0,0.387510496176219,0,0,8.918696248189917
10,22,female,32,165,215,left,change,valid,clock,1,0.9054763580243161,0,f,0,same,1.6649944415967184,0.4887062133053278,0,0,0,0.3875031191846574,0,0,6.0098130028791275
10,22,female,33,105,165,right,change,catch,clock,2,2.305436971302697,1,f,0,same,1.1989667721045407,0,0,0,0,0.387550267784718,0,0,8.185998341138657
10,22,female,34,105,55,right,change,valid,anti,1,1.3762920159779242,0,j,1,change,1.0984395417026462,0.49277955214716934,0,0,0,0.38752589163777884,0,0,5.947233339385093
10,22,female,35,135,135,left,same,valid,clock,1,2.8173479265196875,0,f,1,same,4.468177902253046,0.49653020360261485,0,0,0,0.38749606293185934,0,0,10.689331137769841
10,22,female,36,15,325,left,change,valid,anti,2,1.0414910889148814,1,j,1,change,1.0898219322461955,0.5005325344411681,0,0,0,0.3874819504253537,0,0,5.274047550165051
10,22,female,37,165,215,right,change,valid,clock,2,1.0253470233192274,1,f,0,same,4.6796772213247095,0.49909913442885095,0,0,0,0.3874473106370715,0,0,9.248960966731829
10,22,female,38,135,85,left,change,valid,anti,2,1.0174478687231385,1,f,0,same,1.287165766138969,0.4977365333718408,0,0,0,0.38753326863024995,0,0,5.73211993577479
10,22,female,39,165,115,right,same,catch,anti,1,1.6654713801581238,0,j,0,change,1.3036555881353706,0,0,0,0,0.3873838043591604,0,0,7.811978438656297
10,22,female,40,75,25,right,change,valid,anti,1,0.9845012608247998,0,j,1,change,1.3434595910830467,0.4964337490657305,0,0,0,0.38745308393572486,0,0,5.253515778102155
10,22,female,41,45,45,right,same,valid,clock,2,0.8014213218157238,1,j,0,change,1.3338518610225947,0.5002095833292635,0,0,0,0.38741523675980716,0,0,5.490739630034113
10,22,female,42,135,85,right,change,valid,anti,2,4.249435339384036,1,f,0,same,1.4463192338698718,0.4988593267564756,0,0,0,0.38750536435600225,0,0,8.854258865701013
10,22,female,43,165,115,left,change,valid,anti,2,1.937459145898174,1,j,1,change,1.6401006221694843,0.49757680947203026,0,0,0,0.38751787316778064,0,0,6.5758001951371625
10,22,female,44,135,135,left,same,valid,anti,1,0.9373866589348836,0,j,0,change,1.4445923762959865,0.49634770058787436,0,0,0,0.3874710453064836,0,0,5.718851293315311
10,22,female,45,105,105,right,same,valid,anti,2,2.129205446657579,1,f,1,same,2.0824516758921163,0.49991719553763503,0,0,0,0.3874348018252931,0,0,7.424379418577701
10,22,female,46,45,95,right,change,valid,clock,2,0.8813545568318659,1,f,0,same,1.6075507681371164,0.4986447158139567,0,0,0,0.38743640551911085,0,0,5.413565710715375
10,22,female,47,75,75,left,same,valid,anti,2,2.6012784006170477,1,f,1,same,4.267522440488392,0.4974336117589516,0,0,0,0.3875018362296032,0,0,9.943067904889176
10,22,female,48,165,165,right,same,valid,clock,2,4.049467862295387,1,f,1,same,2.0418820694831084,0.49627048238844473,0,0,0,0.38748098820906307,0,0,9.116703369873903
10,22,female,49,105,75,left,same,catch,anti,1,1.0974340256370851,0,f,1,same,1.467906877986934,0,0,0,0,0.3874957421930958,0,0,6.985300221116631
10,22,female,50,135,185,left,change,valid,clock,2,1.7605470135695214,1,f,0,same,1.043633623943606,0.4951433137170855,0,0,0,0.38748932741691533,0,0,5.79059606735791
10,22,female,51,135,215,left,change,catch,anti,1,1.4334120640114634,0,f,0,same,1.269731368444809,0,0,0,0,0.38742453818395006,0,0,7.531289029900108
10,22,female,52,75,75,left,same,valid,clock,2,1.3680782166411518,1,f,1,same,1.3644756786989092,0.4940411832206738,0,0,0,0.3875387211892303,0,0,5.697476619747249
10,22,female,53,165,165,left,same,valid,anti,2,1.3774582221703895,1,f,1,same,2.120143934733278,0.4928781136025026,0,0,0,0.3875230049889069,0,0,6.961194777602941
10,22,female,54,105,185,left,same,catch,clock,1,0.8414912172102049,0,j,0,change,0.9483463029400809,0,0,0,0,0.387483874857935,0,0,6.376867421344286
10,22,female,55,15,325,right,change,valid,anti,2,1.632407381867779,1,f,0,same,4.120974648166339,0.49171886096501066,0,0,0,0.3874460276820173,0,0,9.020797664507882
10,22,female,56,15,65,right,change,valid,clock,1,1.5295086089499819,0,j,1,change,0.7275708977031172,0.4905524587034201,0,0,0,0.38749542145433225,0,0,5.443306855278024
10,22,female,57,135,355,right,same,catch,anti,2,1.3052573575869246,1,f,1,same,2.2333557422825834,0,0,0,0,0.38745308393572486,0,0,7.858437450485326
10,22,female,58,135,135,right,same,valid,clock,1,1.0163159815801919,0,j,0,change,1.4263734515534452,0.4936323111482118,0,0,0,0.38748291264164436,0,0,5.668828552935338
10,22,female,1,165,165,left,same,valid,anti,1,2.2083256088744747,0,j,0,change,2.342953786032922,0.49651966551528215,0,0,0,0.3874800259927724,0,0,7.697880750605691
10,22,female,2,105,75,left,same,catch,anti,1,1.5052617196352003,0,j,0,change,0.7767895459683132,0,0,0,0,0.3875329478914864,0,0,7.031895546927444
10,22,female,3,105,55,right,change,valid,anti,1,1.0724914539150632,0,j,1,change,1.6138757368171355,0.49963785882800577,0,0,0,0.3875082510057837,0,0,6.078712823969909
10,22,female,4,75,75,left,same,valid,clock,2,0.8974845099201048,1,f,1,same,1.1096589841181412,0.5027106917035954,0,0,0,0.3874527631969613,0,0,5.497516519650162
10,22,female,5,15,15,right,same,valid,clock,1,2.7454293120599687,0,f,1,same,1.510924683479061,0.5016206588637897,0,0,0,0.3875181939065442,0,0,7.653146671918876
10,22,female,6,75,75,left,same,valid,anti,2,1.3374319472504794,1,f,1,same,2.7219579691072795,0.5044774953237815,0,0,0,0.3874771393439005,0,0,7.0559589736622
10,22,female,7,45,355,right,change,valid,anti,1,1.0973894429480424,0,j,1,change,1.4539787966004951,0.5034256098611912,0,0,0,0.3874168404536249,0,0,5.594771252312057
10,22,female,8,165,125,left,same,catch,clock,2,5.553370290993371,1,j,0,change,3.401253511287905,0,0,0,0,0.3874870822455705,0,0,14.03648467734638
10,22,female,9,165,165,right,same,valid,clock,2,0.9363134669874853,1,f,1,same,1.657181565731662,0.5061440629996146,0,0,0,0.3874883652006247,0,0,5.79215582002962
10,22,female,10,75,25,left,change,valid,anti,1,0.9054167006115676,0,j,1,change,0.8209155039348843,0.5051711710021748,0,0,0,0.38749798736444063,0,0,4.643038910104224
10,22,female,11,45,45,right,same,valid,anti,1,1.385467710906596,0,j,0,change,0.9550741195234878,0.5080324397705732,0,0,0,0.387533589368104,0,0,5.440607196993369
10,22,female,12,105,105,left,same,valid,anti,1,0.9214860340716768,0,j,0,change,0.8501880491448901,0.5109701338633547,0,0,0,0.38747810156019113,0,0,4.714694198028155
10,22,female,13,15,15,left,same,valid,clock,2,0.969435518996761,1,f,1,same,1.8252403456017419,0.5137220614228054,0,0,0,0.38740914272239024,0,0,5.578285599919582
10,22,female,14,75,125,left,change,valid,clock,2,1.5694559821313305,1,f,0,same,2.1154123962969607,0.512722860389319,0,0,0,0.38745115950314357,0,0,6.903500927897767
10,22,female,15,15,325,right,change,valid,anti,2,0.9613134509500014,1,f,0,same,1.0204025143357285,0.5117235345508626,0,0,0,0.38742101005755103,0,0,5.167243141161634
10,22,female,16,165,115,left,change,valid,anti,2,5.025442282736549,1,f,0,same,2.6880767284128524,0.5107159431936266,0,0,0,0.38750472287847515,0,0,11.002906214057475
10,22,female,17,135,85,right,change,valid,anti,2,1.609326057267026,1,j,1,change,3.791954075339163,0.5096959713713205,0,0,0,0.38748227116411726,0,0,8.786711600030685
10,22,female,18,15,15,right,same,valid,anti,1,0.7534747235395116,0,j,0,change,1.1728066759851572,0.5087107594196655,0,0,0,0.3874441032503455,0,0,5.339002925779823
10,22,female,19,45,95,left,change,valid,clock,2,1.4013853349251804,1,f,0,same,2.5770475482404436,0.5114539162646792,0,0,0,0.38752845754788723,0,0,7.227096204313057
10,22,female,20,45,355,left,change,valid,anti,1,0.7774290990892041,0,j,1,change,1.183377905332236,0.5104792437178015,0,0,0,0.3875473811358461,0,0,5.042899132145067
10,22,female,21,15,325,left,change,valid,anti,1,0.9534120511825677,0,j,1,change,1.9511627101401245,0.5130611833693214,0,0,0,0.38748612002927985,0,0,6.290981274629303
10,22,female,22,45,185,left,same,catch,anti,1,0.8333707528572631,0,j,0,change,0.9615293081469645,0,0,0,0,0.3875210805563256,0,0,6.407898577267588
10,22,female,23,105,105,right,same,valid,anti,2,2.59223260489307,1,f,1,same,1.5745631056752245,0.5154701574961584,0,0,0,0.387444103249436,0,0,7.430340348745631
10,22,female,24,45,45,left,same,valid,clock,2,1.2574528465893309,1,f,1,same,1.3441267277403313,0.5146173147939408,0,0,0,0.3874652720087397,0,0,5.370233901960091
10,22,female,25,105,165,right,change,catch,clock,1,1.657473438017405,0,j,1,change,0.988452441816662,0,0,0,0,0.387493817759605,0,0,7.484518259979268
10,22,female,26,105,185,left,same,catch,clock,2,0.8802476873133855,1,j,0,change,0.9597870551106098,0,0,0,0,0.3874819504253537,0,0,6.87634237196562
10,22,female,27,165,215,right,change,valid,clock,2,0.9363731243993243,1,j,1,change,1.2752637916073581,0.5137183507081892,0,0,0,0.3874639890536855,0,0,5.3767355977061015
10,22,female,28,45,45,right,same,valid,clock,2,1.0014304949445432,1,j,0,change,1.286259679093746,0.5128250568583831,0,0,0,0.38742197227475117,0,0,5.560283494589385
10,22,female,29,105,105,left,same,valid,clock,2,1.4974738613927912,1,f,1,same,1.1957988352050961,0.5119306862524603,0,0,0,0.38750279844589386,0,0,6.230187163905612
10,22,female,30,165,115,right,same,catch,anti,1,0.7214476737135556,0,j,0,change,1.1163120685660033,0,0,0,0,0.38745821575594164,0,0,6.860650227307815
10,22,female,31,15,15,left,same,valid,anti,1,0.8244737799259383,0,j,0,change,1.3485391310932755,0.5110286798864039,0,0,0,0.38746559274750325,0,0,5.738938521432829
10,22,female,32,135,135,right,same,valid,anti,2,1.3693448140711553,1,j,0,change,2.17352160271912,0.5134112054741253,0,0,0,0.3875092132220743,0,0,6.844883671253228
10,22,female,33,135,185,right,change,valid,clock,1,0.6815192241201657,0,j,1,change,1.0155362656123543,0.5125486163097875,0,0,0,0.3874534046735789,0,0,5.074803980496654
10,22,female,34,165,165,left,same,valid,clock,1,2.8014107374365267,0,j,0,change,1.0908896716346135,0.5148010473794086,0,0,0,0.3875608521648246,0,0,7.091690877098699
10,22,female,35,135,185,left,change,valid,clock,2,0.9614350109459338,1,j,1,change,2.051391332741332,0.5169885554004633,0,0,0,0.38752589163777884,0,0,6.208120015317036
10,22,female,36,135,135,right,same,valid,clock,1,1.3374784543721034,0,j,0,change,1.2906486685169511,0.5161852151067654,0,0,0,0.3874764978663734,0,0,5.65422756159569
10,22,female,37,75,45,right,change,catch,anti,1,1.1535222570255428,0,j,1,change,1.075744065850813,0,0,0,0,0.38755315443449945,0,0,7.234902665402842
10,22,female,38,105,105,right,same,valid,clock,1,0.9203352233398618,0,j,0,change,1.173552072903476,0.5185360979538073,0,0,0,0.38749349702266045,0,0,4.8698701841876755
10,22,female,39,75,25,right,change,valid,anti,1,0.729369921502439,0,j,1,change,1.7039648444642808,0.5209794979725919,0,0,0,0.3875627765974059,0,0,5.665290804225151
10,22,female,40,165,215,left,change,valid,clock,2,0.8654581015725853,1,f,0,same,1.0846583586771885,0.5232590786436125,0,0,0,0.3875005532736395,0,0,4.896910066770943
10,22,female,41,105,155,right,change,valid,clock,2,3.3934560308825894,1,f,0,same,1.3778402220541466,0.5224350969075079,0,0,0,0.38744634842078085,0,0,8.013960476002467
10,22,female,42,75,115,right,change,catch,clock,2,0.8334249577110313,1,f,0,same,1.3332302692724625,0,0,0,0,0.38745436688986956,0,0,7.016393279624026
10,22,female,43,15,65,left,change,valid,clock,2,1.2882197137605544,1,f,0,same,1.2261455345797003,0.5216065684062163,0,0,0,0.38749991179611243,0,0,6.0921896258969355
10,22,female,44,135,135,left,same,valid,anti,2,1.23345324687034,1,j,0,change,1.9889139849146886,0.5207679226049007,0,0,0,0.387483874857935,0,0,6.7341858142353885
10,22,female,45,75,75,right,same,valid,anti,1,1.1133862894439517,0,j,0,change,0.9607672328147601,0.5199140101743513,0,0,0,0.3875124206097098,0,0,5.4891455583128845
10,22,female,46,45,45,left,same,valid,anti,2,1.4333742168364552,1,j,0,change,3.1617459992648946,0.5221906856300615,0,0,0,0.38745885723255924,0,0,7.54917823517826
10,22,female,47,75,75,right,same,valid,clock,1,0.881458155457949,0,j,0,change,0.7282152619045519,0.5213852477941442,0,0,0,0.38747746008266404,0,0,4.918094862983708
10,22,female,48,135,85,left,change,valid,anti,2,3.28140690140026,1,j,1,change,3.4028164713472506,0.5235101975806935,0,0,0,0.3874319151746022,0,0,9.745820613368778
10,22,female,49,135,135,left,same,valid,clock,1,1.0094569828361273,0,j,0,change,1.2570884873384784,0.5227369818009794,0,0,0,0.38750793026520114,0,0,5.458373880059298
10,22,female,50,105,55,left,change,valid,anti,1,0.6813723257600941,0,j,1,change,1.5621277425561857,0.5247558956275846,0,0,0,0.38746046092819597,0,0,5.773910594707559
10,22,female,51,135,355,right,same,catch,anti,1,2.057272719692264,0,j,0,change,4.155154496660543,0,0,0,0,0.3875316649355227,0,0,10.900049457919522
10,22,female,52,105,155,left,change,valid,clock,2,3.440149823498359,1,f,0,same,3.5182586963510403,0.5267204470711434,0,0,0,0.38753006124170497,0,0,10.118208276215228
10,22,female,53,45,95,right,change,valid,clock,1,0.9854355728821247,0,j,1,change,0.7972818671605637,0.5260009909598904,0,0,0,0.387440575123037,0,0,4.928888043563347
10,22,female,54,165,165,right,same,valid,anti,1,1.0333982080956048,0,j,0,change,0.8932565313643863,0.5281119682118258,0,0,0,0.3874627060995408,0,0,4.86973290799142
10,22,female,55,135,215,left,change,catch,anti,1,0.9934784184497403,0,j,1,change,0.6935780399144278,0,0,0,0,0.3875249294214882,0,0,6.267502875421997
10,22,female,56,75,125,right,change,valid,clock,2,0.824399047789484,1,f,0,same,1.4882519800812588,0.530325517276148,0,0,0,0.3874620646220137,0,0,5.7692534676662035
10,22,female,57,165,115,right,change,valid,anti,2,0.8333502255754865,1,f,0,same,1.5027079974934168,0.5295188621129006,0,0,0,0.3874758563870273,0,0,5.323270047296319
10,22,female,58,15,65,right,change,valid,clock,2,1.417309052980272,1,f,0,same,1.543621435870591,0.5287455771352055,0,0,0,0.3875169109523995,0,0,6.0104034829673765
10,22,female,1,165,215,left,change,valid,clock,1,0.9603031238020776,0,j,1,change,1.3159966540533787,0.5280046296699021,0,0,0,0.38746751717917505,0,0,5.361251933252788
10,22,female,2,45,45,right,same,valid,anti,1,0.7454620274147601,0,j,0,change,0.5193816028095171,0.5301460567368347,0,0,0,0.3874229344910418,0,0,4.438771608973184
10,22,female,3,105,105,right,same,valid,anti,2,0.7134535804398183,1,f,1,same,1.0214651219030202,0.5322291426951324,0,0,0,0.3874421788168547,0,0,4.407397262559243
10,22,female,4,105,185,left,same,catch,clock,1,0.8094195846952061,0,f,1,same,1.3343307240156719,0,0,0,0,0.3875044021388021,0,0,6.8449244050789275
10,22,female,5,75,45,right,change,catch,anti,1,0.7682469893861708,0,j,1,change,1.3551142760188668,0,0,0,0,0.3874607816669595,0,0,7.0477698712093115
10,22,female,6,75,75,right,same,valid,anti,1,0.7284554952493636,0,j,0,change,1.3291376424804184,0.5314902360769654,0,0,0,0.3875024777062208,0,0,5.688603381484427
10,22,female,7,45,45,left,same,valid,clock,2,0.713391357116052,1,f,1,same,1.8054276698785543,0.5334402761728287,0,0,0,0.3875496263062814,0,0,5.784594724103954
10,22,female,8,105,105,left,same,valid,clock,2,0.6334311800437717,1,f,1,same,1.172039468830917,0.5327303674155821,0,0,0,0.3874745734337921,0,0,4.579691397977513
10,22,female,9,165,215,right,change,valid,clock,1,0.9374517689066124,0,j,1,change,1.16734962643568,0.5320168167247808,0,0,0,0.38747168678492017,0,0,5.151916638709736
10,22,female,10,15,325,left,change,valid,anti,2,3.0334722987536225,1,j,1,change,1.3255052758304373,0.5338929455166771,0,0,0,0.38751530725676275,0,0,7.6257850883412175
10,22,female,11,75,75,right,same,valid,clock,1,1.0574536163621815,0,j,0,change,1.5227625102561433,0.5332028455956203,0,0,0,0.3874104256792634,0,0,6.236227316552686
10,22,female,12,45,95,right,change,valid,clock,2,0.8570646885200404,1,f,0,same,3.150485502286756,0.5350003336355149,0,0,0,0.3874896481556789,0,0,7.467572026702328
10,22,female,13,105,105,left,same,valid,anti,1,0.6894231897986174,0,j,0,change,1.7945357017542847,0.5343660748955994,0,0,0,0.3874797052540089,0,0,5.729428616697987
10,22,female,14,105,155,right,change,valid,clock,2,3.2413562503334106,1,j,1,change,4.401409390333356,0.5361153461734554,0,0,0,0.3874995910573489,0,0,10.459112862203256
10,22,female,15,105,55,left,change,valid,anti,2,0.7373944849605323,1,f,0,same,2.6108383406008215,0.5354816421615438,0,0,0,0.3875964541675785,0,0,6.589842138790118
10,22,female,16,15,15,left,same,valid,anti,2,0.7694266666076146,1,f,1,same,1.6615869128308987,0.5348588553539968,0,0,0,0.38748483707422565,0,0,5.509390269169671
10,22,female,17,15,15,right,same,valid,clock,2,0.8654722140781814,1,j,0,change,1.1620288908670773,0.534201164190004,0,0,0,0.38753326862934045,0,0,4.969304336837013
10,22,female,18,165,165,left,same,valid,anti,1,0.6494357242700062,0,j,0,change,0.8824723314701259,0.5335476550485161,0,0,0,0.3874845163354621,0,0,4.671237621887485
10,22,female,19,135,135,right,same,valid,clock,1,0.7695100586879562,0,j,0,change,1.0611430745120742,0.5352460664871568,0,0,0,0.3874360847803473,0,0,4.93350507825744
10,22,female,20,105,55,right,change,valid,anti,2,0.9291135229232168,1,f,0,same,1.8551838763341948,0.5370570529915424,0,0,0,0.38746302683648537,0,0,6.202602025401575
10,22,female,21,165,165,right,same,valid,clock,2,0.7295030280947685,1,j,0,change,1.0575052553049318,0.5364354545427037,0,0,0,0.3875210805545066,0,0,4.864399984347983
10,22,female,22,45,355,left,change,valid,anti,2,5.8735047960071824,1,j,1,change,1.0505968627894617,0.5358289056518628,0,0,0,0.38749927031858533,0,0,10.283867288557303
10,22,female,23,135,135,right,same,valid,anti,1,0.9593710569188261,0,j,0,change,0.9977246791168,0.5352341325411099,0,0,0,0.38753198567428626,0,0,5.114779899427958
10,22,female,24,165,125,left,same,catch,clock,2,0.6894770739127125,1,j,0,change,1.008881898207619,0,0,0,0,0.38748227116411726,0,0,6.53289689338817
10,22,female,25,165,115,left,change,valid,anti,2,0.7442329564219108,1,f,0,same,1.366659909768714,0.5369933773242593,0,0,0,0.38755572034460783,0,0,5.634634271194955
10,22,female,26,105,165,right,change,catch,clock,1,0.8974412101870257,0,j,1,change,0.9887565021781484,0,0,0,0,0.38745180098158016,0,0,6.517176523717353
10,22,female,27,135,185,right,change,valid,clock,2,0.9044371643867635,1,f,0,same,1.4010424651714857,0.536390050214716,0,0,0,0.38754128709842917,0,0,5.4714157602065825
10,22,female,28,15,15,left,same,valid,clock,1,0.6414775537377864,0,j,0,change,0.8857919778110954,0.5358009459919999,0,0,0,0.3875111376546556,0,0,4.586018611829786
10,22,female,29,135,135,left,same,valid,anti,2,4.8574104449235165,1,f,1,same,2.590212912815332,0.5375358267579078,0,0,0,0.3875024777080398,0,0,10.39844255664866
10,22,female,30,45,95,left,change,valid,clock,2,1.1054505706269993,1,f,0,same,2.334417964962995,0.5369332065457523,0,0,0,0.38729528045769257,0,0,6.4548996376288414
10,22,female,31,165,115,right,same,catch,anti,2,0.8708176465333963,1,j,0,change,0.9979039720928995,0,0,0,0,0.38752332572767045,0,0,6.704167230633175
10,22,female,32,105,105,right,same,valid,clock,2,0.7915380771446507,1,f,1,same,1.1593577783332876,0.5363471569865763,0,0,0,0.3875255708990153,0,0,5.630242395123787
10,22,female,33,135,135,left,same,valid,clock,2,0.6894687347048603,1,j,0,change,1.2303497784650972,0.5357745699252715,0,0,0,0.3874492350696528,0,0,5.317075940038194
10,22,female,34,165,115,right,change,valid,anti,1,0.6413976897820248,0,j,1,change,0.9448977196116175,0.5352125245404905,0,0,0,0.38750343992251146,0,0,4.724452354575988
10,22,female,35,75,75,left,same,valid,anti,2,1.441398459555785,1,f,1,same,1.7020590146530594,0.5368762607299808,0,0,0,0.38749349702084146,0,0,6.220444082080576
10,22,female,36,165,165,left,same,valid,clock,2,2.2733560373617365,1,j,0,change,3.1328355681343965,0.5363065741512473,0,0,0,0.3874957421921863,0,0,8.522512334009662
10,22,female,37,15,65,left,change,valid,clock,2,0.6413787661949755,1,f,0,same,1.2205104750082683,0.5357496490693984,0,0,0,0.3874870822455705,0,0,4.49940406735368
10,22,female,38,105,75,left,same,catch,anti,2,1.3614463009507745,1,f,1,same,1.2612170368738589,0,0,0,0,0.38749670440847694,0,0,7.250148662422362
10,22,female,39,45,355,right,change,valid,anti,1,0.7684105661628564,0,j,1,change,1.197760794302667,0.5352027200593048,0,0,0,0.3874883652006247,0,0,4.790344928895138
10,22,female,40,135,185,left,change,valid,clock,2,0.7374926310258161,1,f,0,same,1.2601547500453307,0.5368222888917912,0,0,0,0.38753070271923207,0,0,5.191670927146333
10,22,female,41,15,65,right,change,valid,clock,2,0.521410596311398,1,j,1,change,1.1407507596704818,0.5362681217293964,0,0,0,0.38748612002927985,0,0,4.906999225737309
10,22,female,42,75,115,right,change,catch,clock,1,0.657420195382656,0,j,1,change,1.076616154585281,0,0,0,0,0.38747810156019113,0,0,6.345681348590006
10,22,female,43,75,125,right,change,valid,clock,1,3.6563707381028507,0,j,1,change,2.170164109202233,0.5357260684299217,0,0,0,0.3874210100584605,0,0,9.329173565223755
10,22,female,44,105,155,left,change,valid,clock,2,3.209374745412788,1,j,1,change,1.9131984648156504,0.5373246446986719,0,0,0,0.38751209986912727,0,0,8.341639719265004
10,22,female,45,135,85,left,change,valid,anti,2,1.1374035297940281,1,j,1,change,1.3811650002153328,0.5367710653467401,0,0,0,0.3875185146462172,0,0,5.786491252491032
10,22,female,46,135,355,right,same,catch,anti,1,0.7454447075215285,0,j,0,change,0.7595796654186415,0,0,0,0,0.3874546876304521,0,0,6.5173978334732965
10,22,female,47,45,45,left,same,valid,anti,2,0.6723515476605826,1,f,1,same,1.164170142941657,0.5362316378681458,0,0,0,0.38756502176875074,0,0,4.852061805080666
10,22,female,48,45,45,right,same,valid,clock,1,0.8574043508851901,0,f,1,same,3.514708118089402,0.5357037247084346,0,0,0,0.38746880013604823,0,0,7.591106170308194
10,22,female,49,15,15,right,same,valid,anti,1,0.6254072580613865,0,j,0,change,0.9571730340812792,0.5372612590989361,0,0,0,0.3874226137504593,0,0,4.472141271318833
10,22,female,50,165,165,right,same,valid,anti,1,0.6894828472104564,0,j,0,change,0.9190208358322707,0.5388787786797739,0,0,0,0.3875156279973453,0,0,4.833564799817395
10,22,female,51,135,215,left,change,catch,anti,1,0.6011584443149331,0,j,1,change,1.1205900823715638,0,0,0,0,0.3875044021406211,0,0,6.251832861740695
10,22,female,52,75,75,left,same,valid,clock,2,0.688471878585915,1,f,1,same,1.0385996288423485,0.5405946045628909,0,0,0,0.38740978419991734,0,0,5.171067309598584
10,22,female,53,15,325,right,change,valid,anti,2,0.7933675711301476,1,f,0,same,2.747485889096424,0.5399753397634395,0,0,0,0.3874062560753373,0,0,6.7816933211288415
10,22,female,54,75,125,left,change,valid,clock,2,1.2494500933680683,1,j,1,change,0.9479668689673417,0.5393628156303047,0,0,0,0.387503760663094,0,0,5.1626969897388335
10,22,female,55,135,85,right,change,valid,anti,2,1.5214949506098492,1,f,0,same,1.2211769701862067,0.5387764875505694,0,0,0,0.3874710453055741,0,0,5.749886939580392
10,22,female,56,75,25,left,change,valid,anti,1,0.5374799297696882,0,j,1,change,0.811614079406354,0.5382131139572657,0,0,0,0.38745244245910726,0,0,4.535926912614741
10,22,female,57,45,185,left,same,catch,anti,1,0.6334552354510379,0,j,0,change,0.8097011933405156,0,0,0,0,0.3875477018755191,0,0,5.986969987188786
10,22,female,58,75,25,right,change,valid,anti,2,0.7603475140513183,1,j,1,change,0.8605341198708629,0.5398442374548919,0,0,0,0.38753455158621364,0,0,4.5869330380810425
10,22,female,1,135,135,right,same,valid,clock,1,1.0802623130020947,0,j,0,change,1.9933260675297788,0.5392491875068037,0,0,0,0.3875188353849808,0,0,5.904425297052512
10,22,female,2,105,185,left,same,catch,clock,1,1.2012776949904946,0,j,0,change,1.2585953181114746,0,0,0,0,0.387400803514538,0,0,7.375249294214882
10,22,female,3,135,135,left,same,valid,clock,2,2.296373214207051,1,f,1,same,0.9536391342353454,0.540904506338243,0,0,0,0.38739984129824734,0,0,6.288715575909009
10,22,female,4,165,165,left,same,valid,clock,2,1.337527848143509,1,f,1,same,1.027704774069207,0.5403176244713636,0,0,0,0.3874659134853573,0,0,5.712000954517862
10,22,female,5,165,165,right,same,valid,anti,1,0.9214459417235048,0,j,0,change,0.7172136011195107,0.5397193916417043,0,0,0,0.3874777808214276,0,0,5.1214673029262485
10,22,female,6,75,125,right,change,valid,clock,1,0.8813882344038575,0,j,1,change,0.5117743204991712,0.5413304402437618,0,0,0,0.38743832995169214,0,0,4.275402671497432
10,22,female,7,45,185,left,same,catch,anti,1,0.9133360617506696,0,j,0,change,0.47541633496985014,0,0,0,0,0.3875011947511666,0,0,5.737018258376338
10,22,female,8,165,165,right,same,valid,clock,1,0.6960663313457189,0,j,0,change,0.7306451788790582,0.542800917365901,0,0,0,0.38746559274841275,0,0,4.720915888821764
10,22,female,9,105,55,right,change,valid,anti,2,0.8172151406670309,1,j,1,change,0.9102024439016532,0.5441797602971746,0,0,0,0.38743832995169214,0,0,4.593214065551365
10,22,female,10,75,75,left,same,valid,clock,2,0.6893837389288819,1,f,1,same,2.8584592607221566,0.5436670698445,0,0,0,0.3874912518494966,0,0,6.629396606969749
10,22,female,11,105,105,right,same,valid,anti,2,1.6733782324863569,1,f,1,same,1.440205311306272,0.5431538715783927,0,0,0,0.3873119588733971,0,0,5.942318338367841
10,22,female,12,135,135,right,same,valid,anti,1,1.0494380335894675,0,j,0,change,1.6227919540742732,0.54263785888997,0,0,0,0.38742710409496794,0,0,5.876454951276173
10,22,female,13,45,45,left,same,valid,anti,1,0.6814239647028444,0,j,0,change,0.8410854826579452,0.5439931179342945,0,0,0,0.38744442398819956,0,0,5.138638374084621
10,22,female,14,15,15,left,same,valid,clock,1,3.449560299211953,0,j,0,change,1.0231108325679088,0.5452983903532882,0,0,0,0.38751466577923566,0,0,7.445005167101044
10,22,female,15,45,355,right,change,valid,anti,2,1.1213572895267134,1,f,0,same,1.1788657522174617,0.5466979962730855,0,0,0,0.3874633475752489,0,0,5.7535007033802685
10,22,female,16,105,55,left,change,valid,anti,2,0.665489662269465,1,j,1,change,0.8086703389108152,0.5462189730494331,0,0,0,0.3875162694748724,0,0,4.797064406269783
10,22,female,17,75,75,right,same,valid,anti,2,0.9134762245957972,1,f,1,same,1.3585862732797978,0.5457497224356482,0,0,0,0.3875050436181482,0,0,5.134505334206551
10,22,female,18,75,45,right,change,catch,anti,2,0.897413305910959,1,f,0,same,1.5049133973225253,0,0,0,0,0.38750921322025533,0,0,7.000662325574012
10,22,female,19,45,95,right,change,valid,clock,2,1.3443348872060596,1,j,1,change,1.9802790555659158,0.5452882525699478,0,0,0,0.38749349702084146,0,0,6.698363141726077
10,22,female,20,75,125,left,change,valid,clock,1,0.7214685217331862,0,j,1,change,1.0952530019549158,0.5448326638882272,0,0,0,0.38747810156019113,0,0,4.893274492735145
10,22,female,21,15,325,right,change,valid,anti,2,3.897506320157845,1,j,1,change,0.4256251679871639,0.5460881620629995,0,0,0,0.3874428202943818,0,0,7.433202300851917
10,22,female,22,15,15,right,same,valid,anti,2,1.1728089211574115,1,f,1,same,0.9951687118045811,0.5456308205542926,0,0,0,0.38738669100894185,0,0,5.205733398079246
10,22,female,23,75,75,left,same,valid,anti,2,0.7134667307291238,1,f,1,same,1.2067979300809384,0.5451805375941143,0,0,0,0.38748162968659017,0,0,5.29832683409586
10,22,female,24,45,45,left,same,valid,clock,2,1.8094478097063984,1,f,1,same,0.8494269360271574,0.5447355072921359,0,0,0,0.3874348018252931,0,0,5.857024275435833
10,22,female,25,135,85,left,change,valid,anti,1,1.7454498393417452,0,j,1,change,0.8900164282385958,0.5442634113435129,0,0,0,0.3875024777080398,0,0,5.421703815700312
10,22,female,26,135,355,right,same,catch,anti,1,1.2414919228358485,0,j,0,change,0.9652309543707815,0,0,0,0,0.38753775897203013,0,0,6.579600949644373
10,22,female,27,135,135,left,same,valid,anti,2,1.0803213289364066,1,j,0,change,0.8233624200638587,0.5454869125208579,0,0,0,0.38751594873428985,0,0,5.093472260265116
10,22,female,28,15,65,right,change,valid,clock,2,0.8811233041742526,1,f,0,same,1.1660406914870691,0.5450474688689315,0,0,0,0.3874883652006247,0,0,4.983793069604872
10,22,female,29,15,65,left,change,valid,clock,2,0.7132287425556569,1,f,0,same,0.8547781417819351,0.5446125841764483,0,0,0,0.3874989495798218,0,0,4.790043434444669
10,22,female,30,45,95,left,change,valid,clock,1,0.9294153381142678,0,j,1,change,1.3438710989357787,0.5441506225986189,0,0,0,0.3875679084176227,0,0,5.231566661384932
10,22,female,31,15,325,left,change,valid,anti,1,0.8814754753511806,0,j,1,change,0.7969489403112675,0.5453493142727049,0,0,0,0.3874777808214276,0,0,5.020483019767198
10,22,female,32,165,125,left,same,catch,clock,1,0.9614981964841718,0,j,0,change,0.979667406718363,0,0,0,0,0.3874421788168547,0,0,6.174019389301975
10,22,female,33,45,45,right,same,valid,anti,2,1.7604969783205888,1,f,1,same,1.4272785763805587,0.546637663139602,0,0,0,0.38748291264164436,0,0,6.441173300934679
10,22,female,34,105,155,left,change,valid,clock,2,1.0333683793905948,1,f,0,same,2.68474778064774,0.5461966913155063,0,0,0,0.3873982376044296,0,0,6.996147927289712
10,22,female,35,75,115,right,change,catch,clock,2,0.8414690862337011,1,j,1,change,1.0054730864885641,0,0,0,0,0.3874489143327082,0,0,6.532800671755467
10,22,female,36,165,165,left,same,valid,anti,1,0.9844300568147446,0,j,0,change,0.8630836724078108,0.5457643797579811,0,0,0,0.38747296973997436,0,0,5.300819615869841
10,22,female,37,15,15,left,same,valid,anti,1,0.7454928183378797,0,j,0,change,0.881348142056595,0.5470411609090784,0,0,0,0.3875194768606889,0,0,4.666807577901636
10,22,female,38,105,105,right,same,valid,clock,2,0.8573924835509388,1,f,1,same,1.1670292083981622,0.548365922411675,0,0,0,0.3875130620872369,0,0,5.121472434746465
10,22,female,39,15,15,right,same,valid,clock,1,0.6493260316074156,0,j,0,change,0.9462958199401328,0.5478944715023573,0,0,0,0.38756854989514977,0,0,4.683516464483546
10,22,female,40,75,25,right,change,valid,anti,2,0.6494482330836036,1,f,0,same,1.3050873660358775,0.5492640160923149,0,0,0,0.3874101049404999,0,0,5.058391135806232
10,22,female,41,165,215,left,change,valid,clock,2,0.9054907912686758,1,f,0,same,1.1626883297922177,0.5487680718215092,0,0,0,0.38752332572767045,0,0,5.018774765043418
10,22,female,42,105,155,right,change,valid,clock,1,0.7054286962429615,0,f,0,same,1.297737636963575,0.5482908927154305,0,0,0,0.3874572535405605,0,0,5.385926688097243
10,22,female,43,75,75,right,same,valid,clock,1,0.7694706078200397,0,j,0,change,0.8606370770176,0.5496734080942444,0,0,0,0.38740529385904665,0,0,4.658594740782064
10,22,female,44,135,85,right,change,valid,anti,1,0.7133926400711061,0,j,1,change,1.6379773314656632,0.5510900532137388,0,0,0,0.38751659021181695,0,0,5.336899841619015
10,22,female,45,165,115,left,change,valid,anti,2,0.641468573052407,1,f,0,same,1.2177476311826467,0.5523820837309347,0,0,0,0.3874870822455705,0,0,4.728403856306613
10,22,female,46,165,115,right,same,catch,anti,2,0.7054081689602754,1,f,1,same,1.2332774820224586,0,0,0,0,0.3875169109505805,0,0,6.641826196790134
10,22,female,47,45,355,left,change,valid,anti,2,0.7842925881759584,1,j,1,change,0.8515592074163578,0.5519196875417773,0,0,0,0.3874267833543854,0,0,5.089375143130383
10,22,female,48,105,165,right,change,catch,clock,2,0.721367809759613,1,j,1,change,0.9127260165969346,0,0,0,0,0.3874315944376576,0,0,6.220865853572832
10,22,female,49,45,45,right,same,valid,clock,2,1.5285175261287804,1,f,1,same,0.8414363708798192,0.5514493805428273,0,0,0,0.38748419559669856,0,0,5.600617357998999
10,22,female,50,105,75,left,same,catch,anti,2,0.7055422377688956,1,f,1,same,1.002481235176674,0,0,0,0,0.3874845163354621,0,0,6.064813929811862
10,22,female,51,135,215,left,change,catch,anti,2,0.6643731705862592,1,f,0,same,0.8939631188895873,0,0,0,0,0.3875547581283172,0,0,6.595500933028234
10,22,female,52,165,215,right,change,valid,clock,1,0.6163778200152592,0,j,1,change,1.2366067505263345,0.5509693257522282,0,0,0,0.3874745734319731,0,0,5.008470069618852
10,22,female,53,105,105,left,same,valid,anti,2,0.6734799066780397,1,j,0,change,1.2714441135140078,0.5522480362454705,0,0,0,0.3873915020885761,0,0,5.111430424383798
10,22,female,54,165,115,right,change,valid,anti,2,0.8333450937552698,1,j,1,change,2.552913238236215,0.5517916180932889,0,0,0,0.3874832333804079,0,0,6.513219890166511
10,22,female,55,105,105,left,same,valid,clock,1,1.2254649268943467,0,j,0,change,1.0970456109771476,0.5513268440631874,0,0,0,0.3874957421921863,0,0,5.27060377791895
10,22,female,56,135,185,right,change,valid,clock,1,1.4734877327045979,0,j,1,change,0.4226034879702638,0.5525619601864191,0,0,0,0.38743704699663795,0,0,5.292644625926187
10,22,female,57,135,185,left,change,valid,clock,1,0.7854228716241778,0,j,1,change,1.3850446564592858,0.5537160681490169,0,0,0,0.3874101049386809,0,0,5.179016820182369
10,22,female,58,75,25,left,change,valid,anti,2,0.7773492351334426,1,f,0,same,2.977692618069341,0.5548224060179481,0,0,0,0.38748227116411726,0,0,6.838259774032849
10,22,female,1,45,95,right,change,valid,clock,2,2.3523610543579707,1,j,1,change,1.9620553197419213,0.5544038176526079,0,0,0,0.3874274248337315,0,0,7.521081839064209
10,22,female,2,165,165,right,same,valid,anti,2,0.8411810628131207,1,j,0,change,0.6901448520457052,0.5539868149665091,0,0,0,0.3874909311107331,0,0,4.394002569759323
10,22,female,3,75,75,left,same,valid,anti,2,0.7693182569000783,1,f,1,same,1.1317758472159767,0.5535697927151283,0,0,0,0.38745693280179694,0,0,4.968992899486693
10,22,female,4,135,135,left,same,valid,clock,2,0.817331568841837,1,j,0,change,1.3541822091337963,0.5531511702319056,0,0,0,0.38747810156019113,0,0,5.287191745979726
10,22,female,5,15,15,left,same,valid,clock,2,1.2734112044327048,1,j,0,change,0.91173012269428,0.5527293800012775,0,0,0,0.38757432319289364,0,0,5.237784824052142
10,22,female,6,105,105,left,same,valid,clock,1,0.7614072349679191,0,j,0,change,0.8551479535890394,0.5523028566273063,0,0,0,0.38747617712760984,0,0,4.682367898922166
10,22,female,7,135,85,left,change,valid,anti,1,0.6654758705008135,0,j,1,change,0.7922578149591573,0.5534285153795148,0,0,0,0.38750600583443884,0,0,4.537166247248024
10,22,female,8,135,135,right,same,valid,clock,2,4.13735477750015,1,j,0,change,1.8960745422573382,0.5545007385423385,0,0,0,0.3875063265713834,0,0,9.084847273816195
10,22,female,9,135,215,left,change,catch,anti,1,0.7934746978789917,0,j,1,change,0.7087592477018916,0,0,0,0,0.3874745734319731,0,0,5.986702811787836
10,22,female,10,45,45,right,same,valid,anti,2,2.3202762715536664,1,j,0,change,0.9755224995042227,0.5540980232952007,0,0,0,0.3874665549647034,0,0,6.540306921349838
10,22,female,11,165,215,left,change,valid,clock,2,0.7774307027848408,1,j,1,change,1.757945180612296,0.553695576335655,0,0,0,0.38741331232813536,0,0,5.930457418400692
10,22,female,12,165,215,right,change,valid,clock,2,0.6174340128072799,1,j,1,change,0.8800058502747561,0.5532919118555224,0,0,0,0.3874678379197576,0,0,4.53713962592883
10,22,female,13,105,105,right,same,valid,clock,2,0.7614280829893687,1,f,1,same,1.922448571140194,0.5528855579361038,0,0,0,0.38744025438427343,0,0,5.8762509614134615
10,22,female,14,75,125,right,change,valid,clock,2,1.217385196365285,1,f,0,same,2.647595004429604,0.5524750464773965,0,0,0,0.3875175524299266,0,0,6.824775274377316
10,22,female,15,135,135,left,same,valid,anti,1,1.3294869270084746,0,j,0,change,1.0987516205332213,0.5520589033851047,0,0,0,0.38757432319289364,0,0,5.36719586426625
10,22,female,16,75,125,left,change,valid,clock,2,0.9289505876240582,1,f,0,same,4.107234198965671,0.5531596837129783,0,0,0,0.38746430979335855,0,0,8.455567415763653
10,22,female,17,75,45,right,change,catch,anti,2,1.113355498520832,1,j,1,change,3.5049563763186597,0,0,0,0,0.3874726489993918,0,0,9.43441084456208
10,22,female,18,75,25,left,change,valid,anti,2,2.048387934833954,1,j,1,change,0.9562246095174487,0.5527588798301077,0,0,0,0.3875361552782124,0,0,6.0716447035447345
10,22,female,19,75,75,left,same,valid,clock,2,0.6574561181241734,1,f,1,same,1.205857203247433,0.5523534704218944,0,0,0,0.38743704699663795,0,0,5.306000188595135
10,22,female,20,105,105,left,same,valid,anti,1,0.7854180605445436,0,j,0,change,0.6588513318038167,0.5519420218142073,0,0,0,0.3874627060977218,0,0,4.624831531958989
10,22,female,21,15,65,right,change,valid,clock,2,0.6334645368769998,1,f,0,same,0.9593726606126438,0.5530315558479537,0,0,0,0.3875707950664946,0,0,4.518236244635773
10,22,female,22,165,115,left,change,valid,anti,2,3.2095787352754996,1,j,1,change,1.0576290604731184,0.5526359482398565,0,0,0,0.3874813089478266,0,0,7.408600032971663
10,22,female,23,105,55,right,change,valid,anti,2,0.7614402710623835,1,f,0,same,0.8920018012686342,0.5522353147735106,0,0,0,0.3874572535387415,0,0,5.156849921835601
10,22,female,24,105,155,left,change,valid,clock,2,0.48149401405316894,1,f,0,same,0.9164097014490835,0.551828259137637,0,0,0,0.3874335188684199,0,0,4.247642088881548
10,22,female,25,45,45,right,same,valid,clock,2,1.3374996231323166,1,f,1,same,1.0277647522198095,0.5514133636769264,0,0,0,0.3874466691595444,0,0,5.555478186235632
10,22,female,26,15,325,right,change,valid,anti,2,1.7694680419081124,1,j,1,change,0.7939016011932836,0.5509891806097974,0,0,0,0.3874652720096492,0,0,6.152331995424902
10,22,female,27,15,15,right,same,valid,anti,2,0.9933619902749342,1,f,1,same,2.6644796558593953,0.550554223140514,0,0,0,0.38740465237970056,0,0,6.54907688172716
10,22,female,28,105,105,right,same,valid,anti,2,0.6174022596696886,1,j,0,change,1.8517689705749945,0.5501069563830921,0,0,0,0.38748098820906307,0,0,5.507800367053278
10,22,female,29,165,125,left,same,catch,clock,1,0.5134209933803504,0,j,0,change,1.5808399635388923,0,0,0,0,0.3874559705855063,0,0,6.345495320099872
10,22,female,30,15,65,left,change,valid,clock,2,1.52821314502944,1,f,0,same,2.4501828531774663,0.5496537830852897,0,0,0,0.3874627060977218,0,0,7.433213205971697
10,22,female,31,105,185,left,same,catch,clock,2,0.5694835656668147,1,j,0,change,0.9864266557015071,0,0,0,0,0.3874790637746628,0,0,5.9088479640467995
10,22,female,32,75,75,right,same,valid,clock,2,0.5361475808913383,1,j,0,change,1.3374072503647767,0.5492179463508489,0,0,0,0.3874460276820173,0,0,5.132617145027325
10,22,female,33,135,355,right,same,catch,anti,2,0.6094845022234949,1,j,0,change,1.0569599993832526,0,0,0,0,0.3873956716943212,0,0,6.220749104657443
10,22,female,34,135,85,right,change,valid,anti,2,3.040382615701674,1,f,0,same,3.6258068985789578,0.5487992492812468,0,0,0,0.38747681860513694,0,0,10.268008038996413
10,22,female,35,165,165,right,same,valid,clock,1,1.5694803582773602,0,j,0,change,1.1826835058800498,0.548396009310496,0,0,0,0.38743031148260343,0,0,6.202509331895271
10,22,female,36,105,165,right,change,catch,clock,1,1.0414346388897684,0,j,1,change,1.2223508741099067,0,0,0,0,0.3875223635113798,0,0,7.06336098315478
10,22,female,37,165,115,right,change,valid,anti,2,2.0724080618329026,1,f,0,same,2.3339355738426093,0.5495647141257874,0,0,0,0.3875011947529856,0,0,7.195968185278616
10,22,female,38,165,115,right,same,catch,anti,1,0.9374713339711889,0,j,0,change,0.6956419939433545,0,0,0,0,0.3875342308474501,0,0,6.392468476187787
10,22,female,39,105,155,right,change,valid,clock,2,0.7204437613436312,1,j,1,change,1.0096532749685139,0.5491380737130902,0,0,0,0.38748098820906307,0,0,5.013724412261581
10,22,female,40,165,165,left,same,valid,clock,1,0.8574781208044442,0,j,0,change,2.1018955020244903,0.5487279843064896,0,0,0,0.387483874857935,0,0,6.252566712060798
10,22,female,41,45,45,left,same,valid,anti,2,0.6734667563887342,1,f,1,same,1.122571285797676,0.5499141128386347,0,0,0,0.38748676150680694,0,0,4.812036171635555
10,22,female,42,165,165,left,same,valid,anti,2,0.7214819927612552,1,j,0,change,0.9356030305953027,0.5494786597666613,0,0,0,0.38750600583443884,0,0,4.973565672225959
10,22,female,43,75,75,right,same,valid,anti,2,0.7055464073728217,1,j,0,change,1.014309760530523,0.5490608697955942,0,0,0,0.3875881149597262,0,0,4.652264961019682
10,22,female,44,45,355,left,change,valid,anti,2,0.6574452130062127,1,j,1,change,0.959440015754808,0.5486590721140228,0,0,0,0.3874771393439005,0,0,4.873905078000462
10,22,female,45,75,25,right,change,valid,anti,2,0.7134596744763257,1,f,0,same,0.9217259466768155,0.5482717110695478,0,0,0,0.38752140129508916,0,0,4.693540513477274
10,22,female,46,45,95,left,change,valid,clock,1,0.7614184608246433,0,j,1,change,0.8951139296204929,0.5478973340062476,0,0,0,0.38748098820906307,0,0,4.877058902393401
10,22,female,47,15,15,right,same,valid,clock,1,0.6174070707511419,0,j,0,change,0.9384502287193754,0.5489862025434283,0,0,0,0.38746880013604823,0,0,4.456506859640285
10,22,female,48,15,325,left,change,valid,anti,2,0.6575035874629975,1,j,1,change,0.8182774274955591,0.5501647040784748,0,0,0,0.38747938451524533,0,0,4.7457336931602185
10,22,female,49,105,55,left,change,valid,anti,2,0.6334934033657191,1,j,1,change,0.7699584514994058,0.5497325560088775,0,0,0,0.3874870822473895,0,0,4.4735348813028395
10,22,female,50,15,15,left,same,valid,anti,1,0.6414862136862212,0,j,0,change,0.8596565785774146,0.5493150006650767,0,0,0,0.3875098546996014,0,0,4.546829465118208
10,22,female,51,135,185,left,change,valid,clock,2,1.2813145286327199,1,j,1,change,1.82794128684327,0.5504928181640404,0,0,0,0.387400803514538,0,0,6.05333308529589
10,22,female,52,45,45,left,same,valid,clock,2,0.5694335304160631,1,j,0,change,1.0162787758818013,0.5500718943516444,0,0,0,0.38743448108652956,0,0,4.8880942407504335
10,22,female,53,45,185,left,same,catch,anti,1,1.5695098662454257,0,j,0,change,0.9058314158501162,0,0,0,0,0.3874870822455705,0,0,7.343894833602462
10,22,female,54,75,115,right,change,catch,clock,2,0.6882605117334606,1,j,1,change,0.7462654780520097,0,0,0,0,0.3874453862044902,0,0,6.486102068060063
10,22,female,55,45,355,right,change,valid,anti,2,0.5604599009166122,1,j,1,change,0.8877863315246941,0.5496462193784815,0,0,0,0.38744442398819956,0,0,4.6438102868632996
10,22,female,56,135,185,right,change,valid,clock,2,0.7134372227610584,1,j,1,change,0.9146828438751982,0.5492371227721685,0,0,0,0.3875355138006853,0,0,4.6814416053348396
10,22,female,57,105,75,left,same,catch,anti,2,1.2463039667036355,1,f,1,same,3.997571365980548,0,0,0,0,0.38746174388325016,0,0,9.871138064570914
10,22,female,58,135,135,right,same,valid,anti,2,0.5924632160731562,1,f,1,same,2.0130431631005195,0.5488439918835127,0,0,0,0.3874832333804079,0,0,5.80377875182603
10,22,female,1,75,75,left,same,valid,anti,1,1.3765537388189841,0,j,0,change,0.6973970765302511,0.548465337666899,0,0,0,0.38747425269502855,0,0,4.785371874160774
10,22,female,2,105,55,right,change,valid,anti,2,0.8735102485661628,1,f,0,same,0.927585844128771,0.549562653126479,0,0,0,0.38752589163777884,0,0,4.683013866821057
10,22,female,3,165,115,left,change,valid,anti,2,2.0573974870749225,1,f,0,same,1.106397391495193,0.5491617116602621,0,0,0,0.38754192857595626,0,0,6.225368705261644
10,22,female,4,15,15,left,same,valid,anti,2,1.0574109581048106,1,j,0,change,3.126991386881855,0.5487762244555751,0,0,0,0.38755700329784304,0,0,6.8633761861729
10,22,female,5,45,95,right,change,valid,clock,2,0.665545791554905,1,j,1,change,1.0042738442025438,0.5484047566074044,0,0,0,0.38751338282418146,0,0,5.150633042123445
10,22,female,6,135,185,right,change,valid,clock,2,0.8733970277771732,1,j,1,change,3.401325677512432,0.5480459672034059,0,0,0,0.38748740298433404,0,0,7.577504280259745
10,22,female,7,105,165,right,change,catch,clock,1,0.6973431924161559,0,j,1,change,1.6522306419719825,0,0,0,0,0.3874813089478266,0,0,7.2036405775616
10,22,female,8,165,125,left,same,catch,clock,2,0.8077151788329502,1,j,0,change,0.8693813782901998,0,0,0,0,0.38745244245728827,0,0,6.673415117444165
10,22,female,9,105,105,right,same,valid,anti,2,0.7122087932457362,1,f,1,same,1.214738459979344,0.5476985996409889,0,0,0,0.3875230049889069,0,0,5.195390855480582
10,22,female,10,165,115,right,same,catch,anti,1,0.6494107066446304,0,j,0,change,1.2302593301301386,0,0,0,0,0.3874466691613634,0,0,6.610316177871937
10,22,female,11,165,165,right,same,valid,anti,2,0.7124997033170075,1,f,1,same,1.1848481718861876,0.5473614728191208,0,0,0,0.38752268425014336,0,0,5.335457800078075
10,22,female,12,45,45,left,same,valid,anti,2,0.9534550301777927,1,f,1,same,2.0301465583761455,0.5470334731049715,0,0,0,0.38750279844498436,0,0,6.294808650454797
10,22,female,13,45,355,left,change,valid,anti,2,0.6814300587393518,1,j,1,change,1.9207438445409935,0.5467135469865101,0,0,0,0.38753807971261267,0,0,5.734798425301051
10,22,female,14,135,215,left,change,catch,anti,1,0.593439865649998,0,j,1,change,0.9265671777757234,0,0,0,0,0.3874479521145986,0,0,5.705985819497073
10,22,female,15,135,85,left,change,valid,anti,2,0.6316780218894564,1,j,1,change,0.9987382136514498,0.5464006943317775,0,0,0,0.38746366831583146,0,0,4.9131067335256375
10,22,female,16,45,45,right,same,valid,clock,2,0.7694706078182207,1,f,1,same,0.9931063614694722,0.5460939621839613,0,0,0,0.387493817759605,0,0,5.029879382975196
10,22,female,17,15,15,right,same,valid,anti,2,0.593340436627841,1,f,1,same,0.8408353064114635,0.545792439028738,0,0,0,0.38746880013422924,0,0,4.525420793237572
10,22,female,18,75,75,right,same,valid,clock,2,1.0253194397846528,1,j,0,change,2.3712714919038262,0.5454952494767662,0,0,0,0.38742582113809476,0,0,6.536229690018445
10,22,female,19,165,215,right,change,valid,clock,1,0.6492702230607392,0,j,1,change,2.975272323257741,0.5452015493098143,0,0,0,0.3875367967557395,0,0,6.9425691560900304
10,22,female,20,105,155,left,change,valid,clock,1,0.4893303038479644,0,j,1,change,0.8860690961118962,0.5460751219057814,0,0,0,0.3874745734337921,0,0,4.287707173194576
10,22,female,21,135,135,left,same,valid,clock,2,1.4493829306666157,1,j,0,change,0.840227827167837,0.5469655990529698,0,0,0,0.3874716867831012,0,0,5.364142110371176
10,22,female,22,105,105,left,same,valid,clock,1,0.6254111069265491,0,j,0,change,1.8589827064060955,0.5466563021622345,0,0,0,0.38745051802652597,0,0,5.188613965865443
10,22,female,23,45,355,right,change,valid,anti,1,0.6014637876287452,0,j,1,change,0.7057712452551641,0.5475646870201732,0,0,0,0.38757047432773106,0,0,4.1201407273456425
10,22,female,24,135,135,right,same,valid,anti,1,0.5374513840197324,0,j,0,change,0.8650058598977921,0.548525102329936,0,0,0,0.38744698989830795,0,0,4.248768523466424
10,22,female,25,135,135,right,same,valid,clock,1,0.6095088783695246,0,j,0,change,0.514416245803659,0.5495607576563266,0,0,0,0.38741844414653315,0,0,4.067945302491353
10,22,female,26,135,135,left,same,valid,anti,1,0.67349530213869,0,j,0,change,0.6028291726033785,0.5506489410791665,0,0,0,0.3874694416135753,0,0,4.0830931534455885
10,22,female,27,75,125,right,change,valid,clock,2,0.5534212884576846,1,j,1,change,1.175286307468923,0.5516450231038552,0,0,0,0.387440575123037,0,0,4.738527334320679
10,22,female,28,75,115,right,change,catch,clock,1,1.097439478196975,0,j,1,change,1.4363481067739485,0,0,0,0,0.38749349702084146,0,0,7.312560900274548
10,22,female,29,45,45,left,same,valid,clock,2,0.6164416470328433,1,f,1,same,1.4870844909328298,0.5512933212037504,0,0,0,0.38751659021181695,0,0,5.020105189489186
10,22,female,30,75,75,right,same,valid,anti,2,1.5933471721418755,1,j,0,change,5.850733625804423,0.5509328224911152,0,0,0,0.38744378251067246,0,0,10.467193234208025
10,22,female,31,15,325,left,change,valid,anti,2,0.641518287562576,1,j,1,change,0.9051273942350235,0.5505624325220415,0,0,0,0.38746430979335855,0,0,4.7430606561920285
10,22,female,32,105,185,left,same,catch,clock,1,0.7215044444783416,0,j,0,change,0.6212969906373473,0,0,0,0,0.38749927031858533,0,0,5.893675736944715
10,22,female,33,165,115,right,change,valid,anti,2,1.16849722977895,1,j,1,change,1.7139545744084899,0.5501810165804042,0,0,0,0.3874559705855063,0,0,6.036375305424372
10,22,female,34,105,105,right,same,valid,clock,1,0.6174385031499696,0,j,0,change,0.6526508097686019,0.5497897645154445,0,0,0,0.3874149160201341,0,0,4.678683251853727
10,22,female,35,75,125,left,change,valid,clock,1,0.5615157729698694,0,j,1,change,0.6634722153612529,0.5508460380242337,0,0,0,0.38749477997589565,0,0,4.085440640554225
10,22,female,36,105,55,left,change,valid,anti,2,0.5854701485204714,1,j,1,change,0.7390401956254209,0.551805044229709,0,0,0,0.38745115950405307,0,0,4.300714092811177
10,22,female,37,45,45,right,same,valid,anti,2,0.5054313904474839,1,f,1,same,1.3572917715755466,0.5514654270546129,0,0,0,0.3874951007146592,0,0,4.86584619549285
10,22,female,38,135,355,right,same,catch,anti,2,2.009448002150748,1,j,0,change,0.8976387852726475,0,0,0,0,0.38744891433088924,0,0,7.500143370232763
10,22,female,39,75,45,right,change,catch,anti,1,0.8082732643069903,0,j,1,change,3.081344485633963,0,0,0,0,0.38743576404158375,0,0,8.575847022999369
10,22,female,40,75,25,right,change,valid,anti,1,0.4964798919245368,0,j,1,change,0.9354875646367873,0.5511176459835094,0,0,0,0.38749028963502496,0,0,4.950735486090707
10,22,female,41,15,65,left,change,valid,clock,1,0.5373901229122566,0,j,1,change,2.147974438403253,0.5520460309427427,0,0,0,0.38741908562587923,0,0,5.948218328168878
10,22,female,42,165,215,left,change,valid,clock,2,0.5134864240899333,1,f,0,same,1.0577868639502412,0.5529050034840888,0,0,0,0.38747489417255565,0,0,4.499356598013037
10,22,female,43,15,15,left,same,valid,clock,2,0.5614936419951846,1,f,1,same,1.1828329701511393,0.552593905217231,0,0,0,0.3874129915875528,0,0,4.741462414867783
10,22,female,44,45,185,left,same,catch,anti,1,1.377402413623713,0,j,0,change,1.1868864668122114,0,0,0,0,0.38748355411917146,0,0,7.328255290103698
10,22,female,45,75,25,left,change,valid,anti,2,0.5763098490533594,1,f,0,same,0.9116765593207674,0.5522779940355027,0,0,0,0.3874726489993918,0,0,4.288179300672709
10,22,female,46,165,165,left,same,valid,clock,1,0.7134211858228809,0,j,0,change,0.7139494425882731,0.5519563668072734,0,0,0,0.38749991179611243,0,0,4.524825502068779
10,22,female,47,15,325,right,change,valid,anti,2,0.5454807585592789,1,j,1,change,0.8237030446452991,0.5528100835748573,0,0,0,0.38742646261562186,0,0,4.207736732480043
10,22,female,48,105,105,left,same,valid,anti,2,0.4495202068646904,1,j,0,change,1.069266746253561,0.552501540583156,0,0,0,0.38747489417255565,0,0,4.569818737687456
10,22,female,49,105,75,left,same,catch,anti,1,0.5534751725735987,0,j,0,change,1.3948275098937302,0,0,0,0,0.3874659134853573,0,0,6.56390623907464
10,22,female,50,135,85,right,change,valid,anti,2,1.216429394811712,1,f,0,same,1.5170421341717883,0.5521879456932249,0,0,0,0.3874261418786773,0,0,6.1722450623874465
10,22,female,51,75,75,left,same,valid,clock,2,0.9134287552569731,1,f,1,same,5.03827728637043,0.551868410679832,0,0,0,0.38742229301169573,0,0,9.321642939479716
10,22,female,52,45,95,left,change,valid,clock,1,0.6094633334632817,0,j,1,change,0.6584032597329497,0.551542027360177,0,0,0,0.38751530725858174,0,0,4.535431691941994
10,22,female,53,165,165,right,same,valid,clock,2,0.4734373767150828,1,j,0,change,1.2047342967907753,0.5524110852304785,0,0,0,0.3875124206078908,0,0,4.658064559584091
10,22,female,54,15,15,right,same,valid,clock,1,0.6334068038959231,0,j,0,change,0.738994650719178,0.5520996568261993,0,0,0,0.38744891433088924,0,0,4.4880973839917715
10,22,female,55,165,165,left,same,valid,anti,2,0.6094588431205921,1,j,0,change,1.108834685461261,0.5529255930805305,0,0,0,0.3874392921679828,0,0,4.721708113600471
10,22,female,56,105,155,right,change,valid,clock,1,0.5774853566708771,0,j,1,change,0.5049794695114542,0.5526263450502317,0,0,0,0.38749221406578727,0,0,4.297374560668686
10,22,female,57,135,185,left,change,valid,clock,1,0.6334850641578669,0,j,1,change,0.7939044878421555,0.5534167065563375,0,0,0,0.3875031191837479,0,0,4.349913496751469
10,22,female,58,15,65,right,change,valid,clock,1,0.5694957537398295,0,j,1,change,0.7430654672753008,0.5541698696075352,0,0,0,0.38758907717783586,0,0,4.3325172669719905
10,22,female,1,45,355,left,change,valid,anti,2,1.416442737543548,1,j,1,change,0.9022336889884173,0.554900983950428,0,0,0,0.38741170863249863,0,0,5.185201305277587
10,22,female,2,45,95,right,change,valid,clock,1,0.8734820235549705,0,j,1,change,0.6866064618589007,0.5546228982367022,0,0,0,0.3874521217185247,0,0,4.50605426515358
10,22,female,3,135,135,left,same,valid,clock,1,0.9134961104009562,0,j,0,change,0.6729327263255982,0.5553439043175672,0,0,0,0.387470403828047,0,0,4.308889082758469
10,22,female,4,45,45,right,same,valid,anti,2,0.9053804571303772,1,f,1,same,1.194663740672695,0.5561231856960686,0,0,0,0.3874870822455705,0,0,4.962101506125691
10,22,female,5,165,215,left,change,valid,clock,2,2.673448474277393,1,j,1,change,0.9747100681815937,0.5558576931717338,0,0,0,0.38746046092819597,0,0,6.74389874661756
10,22,female,6,45,45,left,same,valid,clock,2,0.7294311826099147,1,f,1,same,0.9431275623010151,0.5555960755974234,0,0,0,0.3874678379179386,0,0,4.987787871072214
10,22,female,7,105,105,right,same,valid,clock,2,0.6575436798102601,1,f,1,same,1.1096407020068,0.5553376574176605,0,0,0,0.38745500836739666,0,0,4.7619707729991205
10,22,female,8,135,355,right,same,catch,anti,2,0.7774515508026525,1,j,0,change,0.9086741236278613,0,0,0,0,0.3874428202943818,0,0,6.56403934566697
10,22,female,9,105,155,left,change,valid,clock,2,0.6880860298369953,1,j,1,change,5.763974748877445,0.5550817837676137,0,0,0,0.38746687570346694,0,0,9.593684268596917
10,22,female,10,15,325,left,change,valid,anti,1,0.6734539268363733,0,j,1,change,0.9517637746066612,0.5548278173612676,0,0,0,0.38742710409314896,0,0,4.262417241377989
10,22,female,11,135,135,right,same,valid,clock,2,0.5535582439169957,1,f,1,same,1.104391170445524,0.5555304810343331,0,0,0,0.38746495126906666,0,0,4.754520973428953
10,22,female,12,165,115,left,change,valid,anti,2,0.4814420543698361,1,j,1,change,0.9290355834018555,0.5552761272196197,0,0,0,0.38753455158439465,0,0,4.402736607391489
10,22,female,13,75,25,left,change,valid,anti,1,1.361479978522766,0,j,1,change,1.0122467687178869,0.555024119132225,0,0,0,0.38749734588600404,0,0,5.482092512609597
10,22,female,14,15,15,right,same,valid,anti,1,0.7854020236045471,0,j,0,change,2.200026172284197,0.5557753823575728,0,0,0,0.38748612002927985,0,0,6.573362259694477
10,22,female,15,165,165,right,same,valid,clock,2,0.6815128093439853,1,f,1,same,1.0300740714137646,0.5565367469724201,0,0,0,0.3874546876304521,0,0,4.660716427792067
10,22,female,16,45,45,left,same,valid,anti,2,0.6014182427243213,1,f,1,same,0.9515277108694136,0.5562743765328519,0,0,0,0.3874732904787379,0,0,4.794465139222666
10,22,female,17,75,75,right,same,valid,anti,2,0.43344830749447283,1,f,1,same,1.3263475358617143,0.5560167718865996,0,0,0,0.38750279844680335,0,0,4.836068165970573
10,22,female,18,75,75,left,same,valid,anti,2,0.36940896182568395,1,f,1,same,1.1456147632197826,0.5557632664177429,0,0,0,0.3875011947529856,0,0,4.46300438578146
10,22,female,19,105,165,right,change,catch,clock,2,1.1847756849219877,1,f,0,same,3.285478038695146,0,0,0,0,0.38743576404158375,0,0,8.981950746070652
10,22,female,20,105,55,right,change,valid,anti,2,0.3924258179322351,1,f,0,same,1.1262014072744932,0.5555132173267929,0,0,0,0.38746880013604823,0,0,4.428923324829157
10,22,female,21,135,135,left,same,valid,anti,2,0.8334182221951778,1,j,0,change,1.9608044385113317,0.5552660025606103,0,0,0,0.3874421788168547,0,0,5.861504033931851
10,22,female,22,165,115,right,same,catch,anti,1,0.6655425841672695,0,j,0,change,1.011146634713441,0,0,0,0,0.3874918933288427,0,0,6.111332599055459
10,22,female,23,15,65,right,change,valid,clock,2,0.584273792883323,1,j,1,change,0.9536407379309821,0.555021017920455,0,0,0,0.3874408958618005,0,0,5.005676755610693
10,22,female,24,105,75,left,same,catch,anti,2,0.5213589573686477,1,f,1,same,3.629189088980638,0,0,0,0,0.3874976666247676,0,0,8.949920168119206
10,22,female,25,75,75,right,same,valid,clock,2,0.40846243603664334,1,j,0,change,1.026016725885711,0.5547776743258253,0,0,0,0.38741972710158734,0,0,4.72883108035785
10,22,female,26,45,185,left,same,catch,anti,1,0.40147353808970365,0,j,0,change,0.7634400773367815,0,0,0,0,0.3874546876286331,0,0,5.924385191874535
10,22,female,27,75,75,left,same,valid,clock,2,0.536420529590032,1,f,1,same,0.9830630681481125,0.554518597473123,0,0,0,0.3874585364956147,0,0,4.783170002458064
10,22,female,28,105,105,left,same,valid,anti,1,0.9134306796913734,0,j,0,change,0.9554333469532139,0.5542599358007649,0,0,0,0.3874322359151847,0,0,5.016067088288764
10,22,female,29,105,185,left,same,catch,clock,1,0.5614314186714182,0,j,0,change,0.63137299931077,0,0,0,0,0.38748547855175275,0,0,5.659441811892975
10,22,female,30,165,165,right,same,valid,anti,2,1.3762166423657618,1,f,1,same,1.1116995242155099,0.5549333291577346,0,0,0,0.3874713660461566,0,0,5.783323957070024
10,22,female,31,75,25,right,change,valid,anti,1,0.6494382901801146,0,f,0,same,1.1255599297201115,0.5546768540779647,0,0,0,0.3875496263081004,0,0,5.2417837951234105
10,22,female,32,105,105,left,same,valid,clock,2,0.5934613551471557,1,j,0,change,1.2427588410027965,0.555341761433616,0,0,0,0.3874309529601305,0,0,4.967187781649045
10,22,female,33,15,15,right,same,valid,clock,1,1.3134836657372944,0,j,0,change,0.9874318510283047,0.5551021846630962,0,0,0,0.3875217220338527,0,0,5.253102025080807
10,22,female,34,135,215,left,change,catch,anti,1,0.7294177115818457,0,j,1,change,1.255748761466748,0,0,0,0,0.3875076095264376,0,0,6.2207773296704545
10,22,female,35,75,115,right,change,catch,clock,2,1.4404628645443154,1,j,1,change,0.8634268628993595,0,0,0,0,0.38746815865670214,0,0,7.391313816593538
10,22,female,36,135,85,right,change,valid,anti,2,0.5842946409029537,1,j,1,change,0.9345336875139765,0.5558160155413505,0,0,0,0.38746046092819597,0,0,4.8522866429611895
10,22,female,37,45,95,left,change,valid,clock,2,0.7775666960260423,1,j,1,change,1.0233497829558473,0.5555745727096351,0,0,0,0.3874678379197576,0,0,4.927288519284048
10,22,female,38,165,125,left,same,catch,clock,1,0.5453030692788161,0,j,0,change,0.3559693655988667,0,0,0,0,0.38744570694325375,0,0,5.518953737280754
10,22,female,39,75,125,right,change,valid,clock,2,0.6164477410675318,1,j,1,change,0.744426682644189,0.5553359778444267,0,0,0,0.38746046092819597,0,0,4.592553985146878
10,22,female,40,165,165,left,same,valid,anti,2,0.43332642675886746,1,j,0,change,0.8849150779951742,0.5550996614519683,0,0,0,0.38751338282600045,0,0,4.181043568514724
10,22,female,41,135,185,left,change,valid,clock,2,0.40922386989223014,1,j,1,change,1.2271792756564537,0.5548650685133526,0,0,0,0.38748964815749787,0,0,4.63088932523533
10,22,female,42,105,55,left,change,valid,anti,2,0.33740949553612154,1,f,0,same,1.0820869959025003,0.5546154968549094,0,0,0,0.38751851464439824,0,0,4.452790138695491
10,22,female,43,165,115,right,change,valid,anti,1,0.5053710915581178,0,j,1,change,1.2814665588139178,0.5543665207111257,0,0,0,0.38746623422593984,0,0,4.957496018027086
10,22,female,44,165,165,left,same,valid,clock,2,0.6014782208749239,1,f,1,same,0.9895368596207845,0.5550141491947993,0,0,0,0.3874617438814312,0,0,4.587096614859547
10,22,female,45,135,185,right,change,valid,clock,2,1.281427428682946,1,f,0,same,2.588738476657454,0.5547828666357515,0,0,0,0.3874806674702995,0,0,6.9346132307309745
10,22,female,46,15,65,left,change,valid,clock,2,1.33740564666914,1,j,1,change,1.5211466282980837,0.5545365819858539,0,0,0,0.38750793026702013,0,0,5.943770643549215
10,22,female,47,105,155,right,change,valid,clock,2,0.5773237043267727,1,f,0,same,0.8486924442295276,0.5542906676957834,0,0,0,0.38747232826244726,0,0,4.7427588410046155
10,22,female,48,15,15,left,same,valid,anti,2,0.34550622521965124,1,f,1,same,0.808125082990955,0.5540444981412773,0,0,0,0.3874983081022947,0,0,4.175412037069691
10,22,female,49,75,45,right,change,catch,anti,1,0.5694062676211615,0,j,1,change,0.698653410319821,0,0,0,0,0.3874983081022947,0,0,5.93992787226307
10,22,female,50,15,15,left,same,valid,clock,2,0.48844057448150124,1,f,1,same,0.9004131756937568,0.5537974525560595,0,0,0,0.38744763137765403,0,0,4.519860465803504
10,22,female,51,45,45,right,same,valid,clock,2,0.49748059690864466,1,f,1,same,0.9453268680936162,0.5535489123172805,0,0,0,0.38749734588600404,0,0,4.650173744195854
10,22,female,52,75,125,left,change,valid,clock,2,0.5534921717280668,1,j,1,change,0.8800173968720628,0.5532982582831726,0,0,0,0.3874857992905163,0,0,4.472143516490178
10,22,female,53,15,325,right,change,valid,anti,2,0.673408702668894,1,j,1,change,0.6400396818007721,0.5530448681646007,0,0,0,0.387463989052776,0,0,4.585169295549349
10,22,female,54,135,85,left,change,valid,anti,1,0.5108464232180268,0,j,1,change,0.9971685180771601,0.5527881139128215,0,0,0,0.3875069680489105,0,0,4.285708008397705
10,22,female,55,105,105,right,same,valid,anti,1,0.5134806507903704,0,j,0,change,0.616071193744574,0.5534662567260885,0,0,0,0.3875063265732024,0,0,4.346080989107577
10,22,female,56,165,215,right,change,valid,clock,1,0.48950318205061194,0,j,1,change,0.8214097623895213,0.5541129624754568,0,0,0,0.38741972710158734,0,0,4.1680562139627
10,22,female,57,45,355,right,change,valid,anti,2,0.5054483896019519,1,j,1,change,0.7862952810992283,0.5547398598511062,0,0,0,0.387493817759605,0,0,4.441616241185329
10,22,female,58,135,135,right,same,valid,anti,1,1.1854742539781,0,j,0,change,0.9395599848867278,0.5545022430358771,0,0,0,0.38750215696745727,0,0,5.226096461545239
10,22,female,1,165,165,right,same,valid,clock,2,1.3198907435435103,1,f,1,same,2.2711381287208496,0.5551196222073373,0,0,0,0.38751530725858174,0,0,6.6243924405716825
10,22,female,2,105,155,right,change,valid,clock,2,0.42548372218698205,1,j,1,change,0.9618516506179731,0.5548984176478416,0,0,0,0.3875082510057837,0,0,4.529351767687331
10,22,female,3,135,135,left,same,valid,anti,2,0.4973715457235812,1,j,0,change,1.6961077066480357,0.5546631129941856,0,0,0,0.3874428202962008,0,0,5.331718627418013
10,22,female,4,15,15,left,same,valid,clock,2,0.40146936848395853,1,f,1,same,0.9284518388285505,0.5544284155558542,0,0,0,0.3874566120630334,0,0,4.19518686561787
10,22,female,5,75,75,left,same,valid,clock,2,0.36142641514743445,1,f,1,same,2.1434282869795425,0.5541937447211294,0,0,0,0.3874591779731418,0,0,5.63754690002861
10,22,female,6,15,15,right,same,valid,clock,1,0.7613956883724313,0,j,0,change,2.1910669760309247,0.553958525297762,0,0,0,0.3874479521145986,0,0,5.932728890416911
10,22,female,7,165,165,right,same,valid,anti,2,0.5614384749242163,1,f,1,same,1.1802244016780605,0.5545731732829418,0,0,0,0.3874415373393276,0,0,4.50739206659091
10,22,female,8,45,95,left,change,valid,clock,1,0.40944550038693706,0,j,1,change,2.4840089268018346,0.5543412344113509,0,0,0,0.38751659021363594,0,0,5.997147990796293
10,22,female,9,165,215,left,change,valid,clock,1,0.3614386032204493,0,j,1,change,0.9728353500304365,0.5549449595834215,0,0,0,0.38748932741691533,0,0,4.254145709061049
10,22,female,10,135,85,right,change,valid,anti,1,0.4494570213246334,0,j,1,change,1.3787017264094175,0.5555435162233708,0,0,0,0.38744570694325375,0,0,5.097736482302935
10,22,female,11,105,55,right,change,valid,anti,1,0.9613384685744677,0,j,1,change,1.7003786641998886,0.5561952142210519,0,0,0,0.38746751718099404,0,0,5.675181105150841
10,22,female,12,135,215,left,change,catch,anti,2,0.6175074619877705,1,f,0,same,1.1000243119979132,0,0,0,0,0.38745693279997795,0,0,6.283233829473829
10,22,female,13,45,45,left,same,valid,anti,2,0.33646235392734525,1,f,1,same,0.9447312561860599,0.556864874410306,0,0,0,0.38745629132426984,0,0,4.730953729582325
10,22,female,14,105,155,left,change,valid,clock,2,0.6254396526783239,1,j,1,change,1.4187491700886312,0.5566315361712411,0,0,0,0.387537117496322,0,0,5.410729417711991
10,22,female,15,165,165,left,same,valid,anti,2,0.3694929953871906,1,f,1,same,0.9020072474140761,0.5564031160106602,0,0,0,0.3874473106370715,0,0,4.316346259320198
10,22,female,16,45,45,right,same,valid,anti,1,0.5054695583621651,0,j,0,change,1.115560577612996,0.5561790673366596,0,0,0,0.3874101049386809,0,0,4.9134980348335375
10,22,female,17,135,185,left,change,valid,clock,1,0.42546960967956693,0,j,1,change,2.028291405291384,0.5568400446173997,0,0,0,0.38744314103314537,0,0,5.6623653458427725
10,22,female,18,105,105,left,same,valid,clock,1,0.39346565304549586,0,j,0,change,1.126195954715513,0.5575311039561841,0,0,0,0.3874671964422305,0,0,4.390333959629061
10,22,female,19,75,125,right,change,valid,clock,2,0.8254574857528496,1,j,1,change,0.8298711720617575,0.5582655129888923,0,0,0,0.3874797052540089,0,0,4.733470566765391
10,22,female,20,75,115,right,change,catch,clock,2,0.5134517843016511,1,j,1,change,0.7780083533216384,0,0,0,0,0.3874877237230976,0,0,5.893156781605285
10,22,female,21,135,355,right,same,catch,anti,1,0.7763052304162557,0,j,0,change,0.6648308648200327,0,0,0,0,0.38741844414653315,0,0,5.940252459904514
10,22,female,22,165,125,left,same,catch,clock,2,0.456498520432433,1,j,0,change,0.9512428948346496,0,0,0,0,0.3875614936423517,0,0,6.080466944340515
10,22,female,23,45,355,right,change,valid,anti,2,0.9525364343226101,1,j,1,change,1.0577817321300245,0.5580015928907212,0,0,0,0.3874614231444866,0,0,4.908179223695697
10,22,female,24,45,45,right,same,valid,clock,1,0.6094671823302633,0,j,0,change,0.4309542427636188,0.5577458721344821,0,0,0,0.38738925691905024,0,0,4.312393153895755
10,22,female,25,165,165,left,same,valid,clock,2,0.6254919330986013,1,j,0,change,0.8781073974550964,0.5584908769904815,0,0,0,0.3875175524281076,0,0,4.31767604228844
10,22,female,26,135,135,right,same,valid,clock,2,0.641548116269405,1,f,1,same,1.0702074730852473,0.5582220177047387,0,0,0,0.38750728878949303,0,0,4.906758992392497
10,22,female,27,105,105,right,same,valid,anti,2,0.4494618324060866,1,f,1,same,1.0049531689310243,0.5579618705715049,0,0,0,0.38749606293094985,0,0,4.775256093877033
10,22,female,28,45,355,left,change,valid,anti,2,0.4494406636476924,1,j,1,change,0.8753092723654845,0.5577097407943056,0,0,0,0.3874633475752489,0,0,4.368649452402678
10,22,female,29,15,65,left,change,valid,clock,2,0.36149729841599765,1,j,1,change,0.8840259901044192,0.557464970123753,0,0,0,0.38747489417255565,0,0,4.279329155604501
10,22,female,30,105,55,left,change,valid,anti,2,0.3934800862916745,1,f,0,same,1.196421389171519,0.5572269336420879,0,0,0,0.38743383960900246,0,0,4.723443631120972
10,22,female,31,45,185,left,same,catch,anti,2,0.36950261755009706,1,j,0,change,0.8381212148797204,0,0,0,0,0.3874906103737885,0,0,5.815493414911543
10,22,female,32,105,105,left,same,valid,anti,2,0.4002726921080466,1,f,1,same,1.0095227342862927,0.556995036785237,0,0,0,0.3874518009797612,0,0,4.3275432500213356
10,22,female,33,165,115,left,change,valid,anti,2,0.35344900028940174,1,f,0,same,0.901004617997387,0.5567687125794653,0,0,0,0.3874466691613634,0,0,4.548687504850022
10,22,female,34,105,165,right,change,catch,clock,1,0.7374698585736041,0,j,1,change,0.44667300874061766,0,0,0,0,0.3875050436163292,0,0,5.940043338223404
10,22,female,35,135,185,right,change,valid,clock,2,0.608453968534377,1,j,1,change,0.8251312944194069,0.5565474190717746,0,0,0,0.38710476162486884,0,0,4.815306744943882
10,22,female,36,75,75,right,same,valid,anti,2,0.6015398027211631,1,j,0,change,1.0227785471943207,0.556330636935047,0,0,0,0.38754385301035654,0,0,4.856934468578402
10,22,female,37,75,125,left,change,valid,clock,2,0.6734827933269116,1,j,1,change,1.2112600479431421,0.5561178672305858,0,0,0,0.3873927850454493,0,0,5.132236107359859
10,22,female,38,15,325,right,change,valid,anti,1,0.6254152765304752,0,j,1,change,0.6743651457018132,0.5559086293121865,0,0,0,0.3873870117477054,0,0,4.3026728445238405
10,22,female,39,165,115,right,same,catch,anti,1,0.5374712698230724,0,j,0,change,0.5701452497632999,0,0,0,0,0.38746559274659376,0,0,5.6749280422554875
10,22,female,40,135,135,left,same,valid,clock,2,1.3763086943945382,1,f,1,same,1.050909903835418,0.5565274858182224,0,0,0,0.3873671259425464,0,0,5.73196501894563
10,22,female,41,135,85,left,change,valid,anti,2,0.6975494274502125,1,j,1,change,1.062520968296667,0.5563134581543399,0,0,0,0.38743832995169214,0,0,5.133549532651159
10,22,female,42,15,15,right,same,valid,anti,2,0.42544715796429955,1,f,1,same,0.7970329738709552,0.5561033602520515,0,0,0,0.3874790637764818,0,0,4.519907293662982
10,22,female,43,45,45,left,same,valid,clock,2,0.39346372861473355,1,f,1,same,0.8172468938046222,0.555896721802473,0,0,0,0.38747232826244726,0,0,4.346034481983224
10,22,female,44,15,15,left,same,valid,anti,1,0.8254430525084899,0,j,0,change,0.9025278064491431,0.555693088303744,0,0,0,0.3874870822455705,0,0,4.824247659089451
10,22,female,45,75,75,left,same,valid,anti,1,0.5054929722919042,0,j,0,change,0.5764955568065488,0.5562966320133673,0,0,0,0.387450518024707,0,0,4.154622391029989
10,22,female,46,105,75,left,same,catch,anti,1,0.5294691580802464,0,j,0,change,0.5606767203298659,0,0,0,0,0.387454046151106,0,0,5.487554693978382
10,22,female,47,135,135,right,same,valid,anti,2,0.5437227893235104,1,f,1,same,0.9218940137961908,0.556919423808042,0,0,0,0.38743897142921924,0,0,4.52707548458784
10,22,female,48,15,65,right,change,valid,clock,2,0.40937525859590096,1,j,1,change,1.3827321298776951,0.5567017684976654,0,0,0,0.38755379591202654,0,0,4.929653326285916
10,22,female,49,165,215,right,change,valid,clock,2,1.3054254247053905,1,f,0,same,1.6643863208773837,0.5564888383089571,0,0,0,0.38744827285336214,0,0,5.813615168633987
10,22,female,50,75,25,right,change,valid,anti,1,0.4574482279494987,0,j,1,change,0.586163585756367,0.5562801474887863,0,0,0,0.387463989052776,0,0,4.266531678405954
10,22,female,51,75,45,right,change,catch,anti,2,0.5740146423668193,1,f,0,same,0.9970992385005957,0,0,0,0,0.38747681860513694,0,0,6.080325177801569
10,22,female,52,105,185,left,same,catch,clock,2,0.4645051225179486,1,j,0,change,0.7462882505060406,0,0,0,0,0.3874280663112586,0,0,6.220913964389183
10,22,female,53,75,75,right,same,valid,clock,1,0.4558166297920252,0,j,0,change,0.6741537788493588,0.5568952466360406,0,0,0,0.38744827285336214,0,0,4.214833077918229
10,22,female,54,15,325,left,change,valid,anti,2,2.081482082568982,1,f,0,same,3.019499634678141,0.5575402725239209,0,0,0,0.38743704699663795,0,0,8.23366974554483
10,22,female,55,165,115,right,change,valid,anti,2,1.089507608245185,1,f,0,same,1.0613829871181224,0.5573114872376171,0,0,0,0.38742967000507633,0,0,4.986795184557195
10,22,female,56,105,105,right,same,valid,clock,2,0.6254091824957868,1,f,1,same,2.137750248411976,0.5570887582442481,0,0,0,0.3874832333804079,0,0,6.314034694954898
10,22,female,57,45,95,right,change,valid,clock,2,0.3934752752102213,1,j,1,change,1.1780773763057368,0.5568715564343335,0,0,0,0.3874912518494966,0,0,4.394410228744164
10,22,female,58,75,25,left,change,valid,anti,1,0.41712302449013805,0,j,1,change,1.1939311733058275,0.5566593761085102,0,0,0,0.38750985469778243,0,0,4.609731150343578
