subject,age,gender,ntrial,memory_ori,test_ori,cue,type,trial_type,which_change,pas,pas_rt,vis,test_key,test_acc,test,test_rt,contrast,fix_dur,cue_dur,jitter_dur,target_dur,mask_dur,retention_dur,trial_dur
11,26,female,1,105,55,left,change,valid,anti,4,3.0239160542205354,1,f,1,change,3.012289027404222,0.5,0,0,0,0.38737747055438376,0,0,9.128766491479837
11,26,female,2,165,165,left,same,valid,clock,4,2.777005229932911,1,j,1,same,2.3417927643076837,0.4069419370673367,0,0,0,0.3874153174874664,0,0,8.672205148337525
11,26,female,3,15,25,right,same,catch,anti,1,1.8253739309038792,0,f,0,change,2.5936461414412406,0,0,0,0,0.3874175626451688,0,0,8.684636262108143
11,26,female,4,75,75,right,same,valid,anti,3,5.8640948713564285,1,j,1,same,2.717716085138818,0.3461892688284379,0,0,0,0.3873665655055447,0,0,12.066774819088096
11,26,female,5,15,355,right,change,catch,anti,1,0.3933871144663499,0,j,0,same,1.865471794091718,0,0,0,0,0.38741243085678434,0,0,6.719883944625508
11,26,female,6,105,15,right,same,catch,clock,1,2.0400904862426614,0,j,1,same,0.1990915453152411,0,0,0,0,0.3874483533700186,0,0,6.969966534330524
11,26,female,7,105,105,left,same,valid,anti,4,2.600136569695678,1,j,1,same,2.2433333269182185,0.2977447647674634,0,0,0,0.38736720697943383,0,0,7.970749452662858
11,26,female,8,105,105,right,same,valid,clock,3,7.081083204878269,1,j,1,same,1.6030007485996975,0.25592670972998877,0,0,0,0.38737105582004006,0,0,11.653419919417502
11,26,female,9,15,325,right,change,valid,anti,2,3.1933705644514703,1,j,0,same,2.300602792591235,0.21928796852134014,0,0,0,0.3874759367272418,0,0,8.975460433597618
11,26,female,10,45,135,right,change,catch,anti,1,1.8653287455144891,0,j,0,same,2.9198645721271532,0,0,0,0,0.38741563822441094,0,0,9.652195346623557
11,26,female,11,105,155,left,change,valid,clock,2,1.8800184872652608,1,f,1,change,3.4214464456272253,0.18534516214727204,0,0,0,0.3874143552775422,0,0,8.73029345485429
11,26,female,12,105,105,right,same,valid,anti,1,1.0894027946433198,0,j,1,same,1.5551522825862776,0.15488367948209586,0,0,0,0.38744161789873033,0,0,5.96769571835739
11,26,female,13,75,15,right,same,catch,anti,1,1.0813019473207532,0,j,1,same,2.631518412533296,0,0,0,0,0.3873999221250415,0,0,8.669297028503024
11,26,female,14,45,45,right,same,valid,anti,3,2.715930543822651,1,f,0,change,2.9871692482765866,0.21622289014791712,0,0,0,0.38745124000070064,0,0,8.65309180575423
11,26,female,15,135,185,right,change,valid,clock,2,1.3853061528207036,1,j,0,same,4.486784364213236,0.19903413425693584,0,0,0,0.38740024286198604,0,0,9.144572076275836
11,26,female,16,15,15,right,same,valid,clock,2,1.425292720366997,1,j,1,same,3.2495030184527423,0.18334199388861483,0,0,0,0.38740826128014305,0,0,7.697798976337253
11,26,female,17,75,125,right,change,valid,clock,2,3.337254018991189,1,f,1,change,2.8534364694332908,0.16866914235008845,0,0,0,0.3874522022106248,0,0,9.58967125127674
11,26,female,18,15,165,left,same,catch,anti,2,1.2573267492498417,1,j,1,same,2.5631591540504814,0,0,0,0,0.38740986496395635,0,0,8.23321921520892
11,26,female,19,15,15,left,same,valid,clock,2,1.3280180844185452,1,j,1,same,3.4169824319669715,0.15556488189233014,0,0,0,0.38744290084559907,0,0,7.987532642979204
11,26,female,20,45,45,left,same,valid,anti,1,0.7374247150728479,0,j,1,same,0.9923786540730362,0.14363918829009092,0,0,0,0.38742942990302254,0,0,5.104138081005658
11,26,female,21,15,15,left,same,valid,anti,1,0.8332849020889626,0,j,1,same,3.6252829699706126,0.17209505767763317,0,0,0,0.3873765083444596,0,0,7.561758176059811
11,26,female,22,105,15,left,same,catch,anti,2,2.3053169808927123,1,j,1,same,4.251906619428155,0,0,0,0,0.3874483533691091,0,0,11.103064895943135
11,26,female,23,45,45,left,same,valid,clock,3,1.5042664398424677,1,j,1,same,2.805840743954832,0.19603649484046598,0,0,0,0.3873886963392579,0,0,7.75674461210383
11,26,female,24,135,135,left,same,valid,anti,3,0.98529261773092,1,j,1,same,3.339915171552093,0.1879847368500503,0,0,0,0.3874368068481999,0,0,7.274785411097582
11,26,female,25,165,215,left,change,valid,clock,2,0.9162165126808759,1,f,1,change,2.994652035940817,0.18041909655741606,0,0,0,0.38748106851471675,0,0,7.1240863012699265
11,26,female,26,45,355,left,same,catch,clock,1,0.3694203838449539,0,j,1,same,2.3954962791331127,0,0,0,0,0.3875112177665869,0,0,7.390784977461408
11,26,female,27,15,15,right,same,valid,anti,3,2.128368136474819,1,j,1,same,2.2287795775391714,0.17322983775226986,0,0,0,0.3874377690581241,0,0,7.57252691141457
11,26,female,28,135,45,left,same,catch,clock,1,0.465274797598795,0,j,1,same,3.1675134116067056,0,0,0,0,0.3874631072585544,0,0,8.154559817719019
11,26,female,29,165,165,left,same,valid,anti,4,1.2963418052731868,1,j,1,same,1.1995466707203377,0.16632871956577838,0,0,0,0.3873963940213798,0,0,5.878020618239134
11,26,female,30,165,165,right,same,valid,clock,3,1.4413757424254072,1,j,1,same,1.7658051036914912,0.16011428627978147,0,0,0,0.3874740123073934,0,0,6.5707102586357
11,26,female,31,75,75,right,same,valid,clock,2,0.8013757680846538,1,j,1,same,1.333162059924689,0.15406644501003913,0,0,0,0.3875083311359049,0,0,5.586070660865516
11,26,female,32,135,135,left,same,valid,clock,2,1.4414376446120514,1,f,0,change,1.6982326123816165,0.1481377003161114,0,0,0,0.3874493155799428,0,0,6.143982882922501
11,26,female,33,45,95,right,change,valid,clock,1,1.0893617403426106,0,j,0,same,4.437409832889898,0.14271864292411868,0,0,0,0.38745605105123104,0,0,8.828260240641612
11,26,female,34,135,85,right,change,valid,anti,1,0.7853626666301352,0,j,0,same,2.217950543680672,0.15654209026774113,0,0,0,0.3874101856999914,0,0,6.429633250390907
11,26,female,35,15,65,left,change,valid,clock,3,1.7933939140848452,1,j,0,same,2.179492607339853,0.16994654306196172,0,0,0,0.3874117893838047,0,0,6.585223274452801
11,26,female,36,15,65,right,change,valid,clock,3,1.5373064915183932,1,j,0,same,3.272195141352313,0.16538344267788996,0,0,0,0.387418524855093,0,0,7.832036915513527
11,26,female,37,15,325,left,change,valid,anti,3,1.913394671023525,1,f,1,change,1.656677321540883,0.16115451161834488,0,0,0,0.3873409065690794,0,0,7.1363939314051095
11,26,female,38,165,215,right,change,valid,clock,3,1.6653545327471875,1,f,1,change,2.7481825453796773,0.15690140558168392,0,0,0,0.3873697728740808,0,0,7.454058313784117
11,26,female,39,165,115,right,change,valid,anti,3,1.7294431818108933,1,f,1,change,1.2727872213363298,0.15296996509641636,0,0,0,0.3875218020784814,0,0,6.02781589199185
11,26,female,40,45,355,left,change,valid,anti,3,1.2733526801721382,1,j,0,same,1.5852999305288904,0.14897330420093685,0,0,0,0.387471767149691,0,0,6.332204340081262
11,26,female,41,75,25,right,change,valid,anti,2,1.3934153392974622,1,j,0,same,1.3040629003198774,0.14524653412311278,0,0,0,0.3874765782011309,0,0,6.046290327029965
11,26,female,42,165,165,right,same,valid,anti,1,0.689411711124194,0,j,1,same,2.115587740416231,0.1417394928901467,0,0,0,0.3874999919817128,0,0,6.159646702089049
11,26,female,43,135,135,right,same,valid,clock,1,0.457429577442781,0,j,1,same,1.54585861540545,0.1511867077589934,0,0,0,0.3874031294917586,0,0,4.860547843975837
11,26,female,44,45,355,right,change,valid,anti,1,0.7373368332127939,0,j,0,same,0.9068769801488088,0.1602291442920757,0,0,0,0.38743584463827574,0,0,4.711944107136333
11,26,female,45,165,115,left,change,catch,anti,2,0.47337628639434115,1,f,1,change,2.0644212530414734,0,0,0,0,0.3873543775107464,0,0,7.203718813966589
11,26,female,46,165,115,left,change,valid,anti,1,1.056236051961605,0,f,1,change,0.9237730697905135,0.16898281537598264,0,0,0,0.3874554095773419,0,0,5.278122035189881
11,26,female,47,75,25,left,change,valid,anti,3,3.4814203633177385,1,j,0,same,0.9365332594352367,0.17754416974951204,0,0,0,0.3874570132611552,0,0,7.420887722261796
11,26,female,48,105,55,right,change,valid,anti,3,1.5454429406172494,1,f,1,change,2.027535888834791,0.1745947145465538,0,0,0,0.3873745839246112,0,0,6.633587485109274
11,26,female,49,135,85,left,change,valid,anti,3,0.8653739693927491,1,j,0,same,2.3485186133138996,0.17159135030599815,0,0,0,0.3873453968826652,0,0,6.522293767892734
11,26,female,50,135,135,right,same,valid,anti,3,1.5933462526081712,1,j,1,same,1.2695198763749431,0.1686840630062475,0,0,0,0.38744225937261945,0,0,5.848291852453258
11,26,female,51,75,75,left,same,valid,clock,3,0.849257269978807,1,j,1,same,2.294491795874819,0.16596357465013278,0,0,0,0.38741467601448676,0,0,6.533053843356356
11,26,female,52,105,155,right,change,valid,clock,2,1.4814267780520822,1,f,1,change,1.3131038269666533,0.16338540464036044,0,0,0,0.38741307233067346,0,0,5.731065147400841
11,26,female,53,135,185,left,change,valid,clock,2,0.5533244040234422,1,f,1,change,3.1568408972671023,0.16071627675095917,0,0,0,0.38747529525426216,0,0,7.1645491628451055
11,26,female,54,45,95,left,change,valid,clock,2,0.6094164451978941,1,j,0,same,2.174369479719644,0.15813086554879807,0,0,0,0.3874021672827439,0,0,5.938916012523805
11,26,female,55,105,105,left,same,valid,clock,2,2.8492370635658517,1,j,1,same,2.1613353809170803,0.1557046115215922,0,0,0,0.38738741339329863,0,0,7.865850904894614
11,26,female,56,45,45,right,same,valid,clock,1,0.9454680222279421,0,j,1,same,0.7125166221803738,0.1533888208369769,0,0,0,0.38748844545989414,0,0,4.274227970679021
11,26,female,57,75,125,left,change,valid,clock,2,1.3453096424364048,1,f,1,change,2.925366810549349,0.1596555271051725,0,0,0,0.38754906469966954,0,0,7.190641094968669
11,26,female,58,75,75,left,same,valid,anti,2,1.057472492015222,1,j,1,same,1.1166647743193607,0.15735012811809984,0,0,0,0.38749389798431366,0,0,5.3008475147071294
11,26,female,1,45,355,left,same,catch,clock,1,0.8558734270263813,0,j,1,same,2.96982316501726,0,0,0,0,0.3874573339980998,0,0,8.631165922878608
11,26,female,2,15,355,right,change,catch,anti,1,1.4883841989703797,0,f,1,change,0.6399172242672648,0,0,0,0,0.3875307827065626,0,0,6.985390442430798
11,26,female,3,15,15,left,same,valid,anti,3,1.4305746126619852,1,j,1,same,2.1392244329526875,0.15517080781989534,0,0,0,0.3875413670184571,0,0,6.85438617085947
11,26,female,4,75,75,right,same,valid,clock,2,1.3773653531216041,1,j,1,same,1.307521725101651,0.1530750162301478,0,0,0,0.38747850262097927,0,0,5.7160655739808135
11,26,female,5,75,25,left,change,valid,anti,1,0.4573859572483343,0,f,1,change,2.782948160606793,0.1508811162496133,0,0,0,0.3874983882978995,0,0,6.549505391904859
11,26,female,6,45,45,left,same,valid,anti,2,1.041360924388755,1,j,1,same,2.300841741446675,0.1565685612177053,0,0,0,0.3874477118961295,0,0,6.427582459807127
11,26,female,7,15,15,right,same,valid,clock,2,1.9453394068041234,1,f,0,change,4.612729014035722,0.15459287603453453,0,0,0,0.3875737614271202,0,0,9.85606715200538
11,26,female,8,105,155,left,change,valid,clock,3,1.2174030461010261,1,f,1,change,1.4854318174675427,0.15254661340338554,0,0,0,0.3874307128498913,0,0,5.52250577486484
11,26,female,9,45,45,left,same,valid,clock,4,1.401257672824613,1,j,1,same,2.6841554777665806,0.15052910612660525,0,0,0,0.38745348515658407,0,0,7.663585028266425
11,26,female,10,135,185,right,change,valid,clock,2,0.9293099477772557,1,f,1,change,4.465696887121339,0.1485492870473618,0,0,0,0.38747208788663556,0,0,8.52272419657129
11,26,female,11,45,95,left,change,valid,clock,1,0.4414260980902327,0,j,0,same,1.6569098556619792,0.14667775795784926,0,0,0,0.38744707042314985,0,0,5.084018266597013
11,26,female,12,75,75,right,same,valid,anti,1,0.7612894514186337,0,j,1,same,1.5627094811698043,0.15197254069275384,0,0,0,0.3874833136715097,0,0,5.1733809691504575
11,26,female,13,165,115,left,change,valid,anti,2,0.9292512529582382,1,f,1,change,1.821561974994438,0.15684118422538817,0,0,0,0.38746727683610516,0,0,5.680561622825735
11,26,female,14,135,85,left,change,valid,anti,2,1.7452991222717174,1,f,1,change,1.2578248533754959,0.1551218289141572,0,0,0,0.38754168775449216,0,0,5.840932548426281
11,26,female,15,135,135,left,same,valid,clock,1,0.4173227336259515,0,f,0,change,1.8189155763220697,0.15345608302042457,0,0,0,0.38755227206729614,0,0,5.61334450780123
11,26,female,16,15,325,right,change,valid,anti,1,0.6334229471731305,0,j,0,same,0.6194660888277213,0.15800776419034995,0,0,0,0.3874759367272418,0,0,3.940295821890686
11,26,female,17,135,135,right,same,valid,clock,2,1.193352603195308,1,f,0,change,1.6120679756577374,0.16280109193583925,0,0,0,0.38743327874362876,0,0,5.838726200533529
11,26,female,18,45,355,left,change,valid,anti,1,0.6334527756880561,0,f,1,change,1.1028201738263306,0.16110245978222415,0,0,0,0.38748363440936373,0,0,5.140050650742523
11,26,female,19,15,25,right,same,catch,anti,1,0.7292927562893965,0,f,0,change,3.089135300219823,0,0,0,0,0.3875153873441377,0,0,8.560274447996562
11,26,female,20,75,15,right,same,catch,anti,1,1.0882734806536973,0,j,1,same,0.6861934388816735,0,0,0,0,0.3874538058935286,0,0,6.78282403549656
11,26,female,21,75,125,right,change,valid,clock,1,0.808329019424491,0,f,1,change,0.6896381512478911,0.16552868786590175,0,0,0,0.3875195569216885,0,0,4.732885328283373
11,26,female,22,165,115,right,change,valid,anti,1,0.7214100099372445,0,j,0,same,0.8582571423248737,0.17012290327276197,0,0,0,0.3874974260879753,0,0,4.508846560195707
11,26,female,23,75,125,left,change,valid,clock,1,0.3133081362566372,0,f,1,change,2.9099303937173318,0.17450388180692994,0,0,0,0.3875105762936073,0,0,6.215154360960696
11,26,female,24,165,165,left,same,valid,clock,4,1.6094401797154205,1,j,1,same,1.2324606728670915,0.17863199007184738,0,0,0,0.3874255810624163,0,0,6.229113785200752
11,26,female,25,45,45,right,same,valid,anti,3,1.337302770972201,1,j,1,same,4.1333591205657285,0.17709900893627956,0,0,0,0.3874724086235801,0,0,8.834348465050425
11,26,female,26,105,15,left,same,catch,anti,1,1.3375378709888537,0,f,0,change,1.0431198445576229,0,0,0,0,0.3875115385035315,0,0,7.0320887465677515
11,26,female,27,105,105,right,same,valid,clock,3,1.695965965985124,1,j,1,same,1.69214695386745,0.1756317463432065,0,0,0,0.3874910113536316,0,0,6.407742327817687
11,26,female,28,105,105,left,same,valid,clock,1,0.801424520065666,0,j,1,same,0.6596216846246534,0.17421109107515315,0,0,0,0.38750127492858155,0,0,4.66618459937763
11,26,female,29,45,95,right,change,valid,clock,3,1.2013960386448161,1,f,1,change,1.9495186062576977,0.17808056972053787,0,0,0,0.38749710535103077,0,0,6.1196001567759595
11,26,female,30,105,105,left,same,valid,anti,3,0.7693607909623097,1,j,1,same,1.6452266999203857,0.17665590022056094,0,0,0,0.3874829929354746,0,0,5.612155536781756
11,26,female,31,15,65,left,change,valid,clock,2,3.0175026027782224,1,j,0,same,1.0149203514502005,0.17528561243729057,0,0,0,0.3874409764248412,0,0,7.217937072738096
11,26,female,32,75,25,right,change,valid,anti,3,1.4814466637290025,1,f,1,change,1.440803548117401,0.1739532747360683,0,0,0,0.38753527302105795,0,0,6.586353550651438
11,26,female,33,15,15,left,same,valid,clock,3,0.9693776617141339,1,j,1,same,2.9300816403247154,0.17255265357165545,0,0,0,0.38745348515749356,0,0,7.337748274275327
11,26,female,34,135,135,right,same,valid,anti,2,2.0654367054949034,1,f,0,change,1.3966236687019773,0.17115914789871906,0,0,0,0.38749902977087913,0,0,6.580769524366588
11,26,female,35,45,45,right,same,valid,clock,2,0.49745687855192955,1,j,1,same,2.0238669815025787,0.16975919813141538,0,0,0,0.3874788233588333,0,0,5.3004013699310235
11,26,female,36,135,85,right,change,valid,anti,2,1.0093504375809061,1,j,0,same,2.5866977011510244,0.1684073237923603,0,0,0,0.38750031271865737,0,0,6.2736253063840195
11,26,female,37,15,15,right,same,valid,anti,1,1.1213132115944973,0,j,1,same,2.5635629615808284,0.16712039771358617,0,0,0,0.3874435423185787,0,0,6.849600458268469
11,26,female,38,165,165,right,same,valid,clock,1,0.4014283047590652,0,j,1,same,1.3892643646759097,0.1708162628454103,0,0,0,0.3876093632025004,0,0,4.808849254382949
11,26,female,39,15,325,left,change,valid,anti,3,2.513131923502442,1,f,1,change,1.9826391628521378,0.17429488768410462,0,0,0,0.3874724086235801,0,0,7.434883389751121
11,26,female,40,75,75,left,same,valid,clock,1,0.8014258030116252,0,f,0,change,1.543931629194958,0.1730275460419236,0,0,0,0.3874072990693094,0,0,5.199887934590151
11,26,female,41,135,45,left,same,catch,clock,1,0.48131901051419845,0,j,1,same,3.898611915626134,0,0,0,0,0.38747786114799965,0,0,8.856374417782718
11,26,female,42,165,215,left,change,valid,clock,2,2.136357046681951,1,j,0,same,0.9968859671907921,0.17630149147570584,0,0,0,0.38744001421491703,0,0,6.405600127268372
11,26,female,43,165,115,left,change,catch,anti,1,0.5613957435671182,0,j,0,same,1.3739802977843283,0,0,0,0,0.3874291091669875,0,0,6.5639247525996325
11,26,female,44,105,55,right,change,valid,anti,2,1.0321006138256053,1,j,0,same,2.6575869308762776,0.17513334148967707,0,0,0,0.3874313543237804,0,0,7.0862358402764585
11,26,female,45,165,215,right,change,valid,clock,4,1.2814782242221554,1,j,0,same,1.4369312937042196,0.17399232473943888,0,0,0,0.38743808979506866,0,0,5.786495187987384
11,26,female,46,165,165,left,same,valid,anti,4,1.161437695929635,1,j,1,same,1.5184561530450083,0.17278910332363917,0,0,0,0.3874489948439077,0,0,6.045816598894817
11,26,female,47,105,15,right,same,catch,clock,1,0.7374510154850213,0,j,1,same,0.7966978230315362,0,0,0,0,0.3875705540604031,0,0,6.532802385768264
11,26,female,48,75,75,left,same,valid,anti,2,0.703856410019398,1,f,0,change,1.5135334858750866,0.17159028852523184,0,0,0,0.38745188147368026,0,0,5.3264413427068575
11,26,female,49,105,105,right,same,valid,anti,2,0.3294081573603762,1,j,1,same,1.9181316316326047,0.17038417001325828,0,0,0,0.38747561599029723,0,0,5.46149202873039
11,26,female,50,135,135,left,same,valid,anti,2,0.6093455623822592,1,f,0,change,1.7452118818837334,0.1691819925023435,0,0,0,0.387495822404162,0,0,5.168120566215293
11,26,female,51,45,135,right,change,catch,anti,1,0.3534589210039485,0,j,0,same,0.4856091848732831,0,0,0,0,0.38744129716178577,0,0,5.362961387789255
11,26,female,52,15,65,right,change,valid,clock,1,0.3923613984379699,0,j,0,same,0.5148266963287824,0.16803662281422416,0,0,0,0.3874791440948684,0,0,4.131677818681965
11,26,female,53,105,55,left,change,valid,anti,3,1.2174325538790072,1,f,1,change,1.272795560490522,0.17127559500041245,0,0,0,0.38755066838348284,0,0,5.515498639755606
11,26,female,54,165,165,right,same,valid,anti,2,1.2172420362676348,1,j,1,same,5.282841034542798,0.1701175615354208,0,0,0,0.38743969347888196,0,0,9.759649203835579
11,26,female,55,45,355,right,change,valid,anti,2,1.3854405415058864,1,j,0,same,1.2477675120644562,0.16897487719711457,0,0,0,0.3875253301821431,0,0,6.009057925693014
11,26,female,56,135,185,left,change,valid,clock,2,1.2493766481857165,1,f,1,change,2.31407181038594,0.16788706900953698,0,0,0,0.38747305009746924,0,0,7.097856452357519
11,26,female,57,105,155,right,change,valid,clock,1,0.39332745743740816,0,j,0,same,2.5685109669511803,0.16684357297530827,0,0,0,0.38755066838257335,0,0,6.229777389472474
11,26,female,58,15,165,left,same,catch,anti,1,1.2893988175082995,0,j,1,same,0.8719186021526184,0,0,0,0,0.38744161789873033,0,0,6.548220841343209
11,26,female,1,135,135,right,same,valid,anti,1,0.4322498205483498,0,j,1,same,2.9222582302645606,0.16987217243607894,0,0,0,0.3874275054831742,0,0,6.080580289702084
11,26,female,2,75,75,left,same,valid,clock,1,0.7374667315834813,0,f,0,change,0.6657580195405899,0.1728323452767957,0,0,0,0.38748363440845424,0,0,4.6198182577454645
11,26,female,3,165,165,left,same,valid,clock,3,1.345435691966486,1,j,1,same,1.2594025572980172,0.17556972260588594,0,0,0,0.38745188147368026,0,0,5.609280452828898
11,26,female,4,45,95,left,change,valid,clock,3,1.393371719103925,1,j,0,same,2.227241644969581,0.1746027107085097,0,0,0,0.38749389798431366,0,0,6.9995904192091984
11,26,female,5,105,55,right,change,valid,anti,3,0.6975247464415588,1,f,1,change,2.0381962151786865,0.17358512736821485,0,0,0,0.3874791440948684,0,0,5.985508473543632
11,26,female,6,105,55,left,change,valid,anti,2,1.113041411600534,1,f,1,change,1.6549610593547186,0.17257467877685057,0,0,0,0.3874085820161781,0,0,5.7608978318839945
11,26,female,7,105,15,right,same,catch,clock,1,0.9534518006475992,0,j,1,same,0.5851976155154262,0,0,0,0,0.38750031271865737,0,0,6.423518725571739
11,26,female,8,105,105,left,same,valid,clock,3,1.2802587832147765,1,j,1,same,1.332724254302775,0.17156280811408942,0,0,0,0.3874137138036531,0,0,5.887484596618378
11,26,female,9,165,115,right,change,valid,anti,2,1.1214697311143027,1,j,0,same,1.810134125681543,0.17054122077394468,0,0,0,0.38747882335792383,0,0,6.356260556247435
11,26,female,10,135,135,right,same,valid,clock,2,1.6894591801583374,1,j,1,same,1.170614294209372,0.16951075409785482,0,0,0,0.3875195569216885,0,0,6.318350758959241
11,26,female,11,75,25,left,change,valid,anti,2,1.4973138299747006,1,f,1,change,2.4692253117727887,0.16852143989431256,0,0,0,0.3874605413648169,0,0,7.119114882119902
11,26,female,12,15,65,right,change,valid,clock,2,1.3054555391554459,1,f,1,change,1.4821397757796149,0.16757489030934813,0,0,0,0.3874441837924678,0,0,5.9723095160661614
11,26,female,13,165,215,right,change,valid,clock,2,2.2972751491270174,1,f,1,change,3.2618363075253,0.16666293231016477,0,0,0,0.3874862003031012,0,0,8.892406301578376
11,26,female,14,45,95,right,change,valid,clock,2,1.041348415657012,1,f,1,change,2.8691031752296112,0.16577813225094418,0,0,0,0.3874724086235801,0,0,6.694434448149877
11,26,female,15,45,45,left,same,valid,anti,2,0.8893217765480586,1,j,1,same,3.5790862980629754,0.16491365644003841,0,0,0,0.38753046196961805,0,0,7.4977676724329285
11,26,female,16,105,15,left,same,catch,anti,1,0.8974691306939349,0,j,1,same,0.44747583409207436,0,0,0,0,0.38743969347797247,0,0,5.955736408300254
11,26,female,17,45,45,left,same,valid,clock,1,1.912132572032533,0,f,0,change,0.538921721637962,0.16400446175223726,0,0,0,0.38737201802996424,0,0,5.919727296812198
11,26,female,18,105,105,right,same,valid,anti,3,1.2253951636748752,1,j,1,same,1.2804650169246088,0.16634927187281523,0,0,0,0.38752949975969386,0,0,5.284981952144335
11,26,female,19,45,45,right,same,valid,clock,2,0.7454694334701344,1,j,1,same,1.9929081903965198,0.16550311422005143,0,0,0,0.38747305009746924,0,0,6.043843105860105
11,26,female,20,15,325,left,change,valid,anti,2,1.5213286711050387,1,f,1,change,4.192293209811396,0.1646741393067392,0,0,0,0.3875285375497697,0,0,8.684554153508543
11,26,female,21,15,165,left,same,catch,anti,1,1.2093907221124027,0,j,1,same,0.946041499482817,0,0,0,0,0.3874499570529224,0,0,6.985242582803039
11,26,female,22,75,75,left,same,valid,anti,2,0.7283109811914983,1,j,1,same,1.6096143397535343,0.16379992633132462,0,0,0,0.38744707042224036,0,0,5.404561902507339
11,26,female,23,105,105,left,same,valid,anti,1,0.6734358151297783,0,f,0,change,0.8782582841477051,0.16293101738856364,0,0,0,0.38745508884130686,0,0,4.589394134751274
11,26,female,24,135,185,left,change,valid,clock,2,1.0973156902482515,1,f,1,change,1.593193261192937,0.16519360744159656,0,0,0,0.38745188147368026,0,0,5.6248701818121845
11,26,female,25,75,75,right,same,valid,anti,2,1.0335086480235987,1,j,1,same,1.1897430321550928,0.16439735558628005,0,0,0,0.3875541964871445,0,0,5.736077941588519
11,26,female,26,135,85,left,change,valid,anti,2,2.4092818640710902,1,f,1,change,3.6322593143549966,0.1635551302574031,0,0,0,0.3874974260879753,0,0,9.43404177659977
11,26,female,27,75,125,left,change,valid,clock,2,0.9053801018781087,1,f,1,change,1.095213581788812,0.16271584505021158,0,0,0,0.3875112177665869,0,0,5.042436033872036
11,26,female,28,45,355,left,same,catch,clock,1,0.8253235752390538,0,f,0,change,0.979557524451593,0,0,0,0,0.3874791440948684,0,0,6.7663849956798
11,26,female,29,15,325,right,change,valid,anti,2,1.2482126946315475,1,f,1,change,2.7670607879481395,0.1618735776798838,0,0,0,0.3875064067160565,0,0,7.2064498871332034
11,26,female,30,105,155,left,change,valid,clock,2,0.48951639958886517,1,f,1,change,1.0132409739871946,0.16102252873546197,0,0,0,0.38746567315229186,0,0,4.558164321118966
11,26,female,31,165,215,left,change,valid,clock,2,0.593363572391354,1,j,0,same,2.93276748961307,0.16015694100537842,0,0,0,0.38754264996532584,0,0,6.857962064544154
11,26,female,32,45,45,right,same,valid,anti,3,0.985406800004057,1,j,1,same,1.6056352800123932,0.15929142339719943,0,0,0,0.3874355239013312,0,0,5.824441228523938
11,26,female,33,75,25,right,change,valid,anti,3,1.185460234740276,1,f,1,change,0.9639883226172969,0.15846398336866774,0,0,0,0.3875205191316127,0,0,5.164109432802434
11,26,female,34,135,135,left,same,valid,clock,3,0.6573829423232382,1,f,0,change,1.9573805047239148,0.15766979360126898,0,0,0,0.3875285375497697,0,0,5.743445584770598
11,26,female,35,165,165,right,same,valid,clock,2,1.5054387325508287,1,j,1,same,1.1959986811307317,0.1569031058368855,0,0,0,0.3875509891195179,0,0,5.433463488294365
11,26,female,36,75,75,right,same,valid,clock,2,0.9613752805644253,1,j,1,same,3.1329883489179338,0.15615864314553052,0,0,0,0.38754361217525,0,0,7.491251905978061
11,26,female,37,75,15,right,same,catch,anti,1,0.8094262597414854,0,j,1,same,0.37329488341583783,0,0,0,0,0.3875461780689875,0,0,6.064770856065479
11,26,female,38,135,135,left,same,valid,anti,1,0.5278640024998822,0,f,0,change,6.458543496069069,0.15543151866651844,0,0,0,0.387471767149691,0,0,10.275535293547364
11,26,female,39,45,355,right,change,valid,anti,1,0.40142958770593395,0,f,1,change,0.7911609450438846,0.1575757775841492,0,0,0,0.38750223713850573,0,0,4.050100999993447
11,26,female,40,15,355,right,change,catch,anti,1,0.20139283127809904,0,j,0,same,1.2888724885506235,0,0,0,0,0.3874749745182271,0,0,6.298778442130242
11,26,female,41,135,45,left,same,catch,clock,1,0.4962611720611676,0,j,1,same,0.7093352346610118,0,0,0,0,0.3874637487324435,0,0,5.971211634275278
11,26,female,42,165,165,right,same,valid,anti,2,1.6559963974850689,1,j,1,same,1.685603924791394,0.1597962408142128,0,0,0,0.38746182431168563,0,0,6.344323377024011
11,26,female,43,15,15,left,same,valid,anti,1,0.49745687855192955,0,f,0,change,0.915390615628894,0.15899405148488166,0,0,0,0.38748203072555043,0,0,4.737077677943489
11,26,female,44,165,115,left,change,valid,anti,2,0.5774168634388843,1,f,1,change,1.5916434613654928,0.16122095028844918,0,0,0,0.3874355239013312,0,0,5.1531931585577695
11,26,female,45,105,155,right,change,valid,clock,2,1.042144804931013,1,f,1,change,1.0012361193166726,0.16043311054498344,0,0,0,0.3875259716560322,0,0,4.859215182906155
11,26,female,46,165,165,left,same,valid,anti,3,0.8973745133616831,1,j,1,same,1.346729864630106,0.15963254274571753,0,0,0,0.38744129716178577,0,0,5.655104749405837
11,26,female,47,15,15,right,same,valid,clock,3,0.42547714398097014,1,j,1,same,0.9661898594595186,0.15885941668514864,0,0,0,0.38749486019423784,0,0,4.566852437374109
11,26,female,48,135,185,right,change,valid,clock,2,1.9134732515194628,1,f,1,change,1.1553052098543048,0.15811859514863225,0,0,0,0.3874951809302729,0,0,6.202545879783429
11,26,female,49,105,105,right,same,valid,clock,2,1.2094086833694746,1,j,1,same,1.4540916704036135,0.15740503028574987,0,0,0,0.3875583660646953,0,0,6.079492992224004
11,26,female,50,15,15,left,same,valid,clock,1,0.37745964971691137,0,j,1,same,0.20869440269507322,0.15671409023800537,0,0,0,0.3875339900732797,0,0,4.082410734159566
11,26,female,51,135,85,right,change,valid,anti,2,1.2174145926228448,1,j,0,same,1.1864436135219876,0.15873300931984552,0,0,0,0.3874291091669875,0,0,5.344610436388393
11,26,female,52,45,355,left,change,valid,anti,1,0.8812905290933486,0,f,1,change,3.2692209497527074,0.1580173355137628,0,0,0,0.3875080103998698,0,0,7.537130727796466
11,26,female,53,165,115,left,change,catch,anti,2,0.6570198683566559,1,j,0,same,7.3064501437220315,0,0,0,0,0.3874695219928981,0,0,12.865580203103491
11,26,female,54,15,25,right,same,catch,anti,2,1.9603607903209195,1,j,1,same,0.024623278685794503,0,0,0,0,0.3874685597829739,0,0,7.001276852879528
11,26,female,55,15,65,left,change,valid,clock,2,1.960020809398884,1,j,0,same,1.3861901032196329,0.1600879537719409,0,0,0,0.3874749745173176,0,0,6.7719882661685915
11,26,female,56,75,125,right,change,valid,clock,2,0.7053715702822956,1,f,1,change,1.9304238664044533,0.15933471915652347,0,0,0,0.3874579754710794,0,0,5.759973468658245
11,26,female,57,45,135,right,change,catch,anti,1,0.9054384759620007,0,j,0,same,1.7495822404234787,0,0,0,0,0.38744065568880615,0,0,7.046969326664112
11,26,female,58,15,15,right,same,valid,anti,2,3.1121462354167306,1,j,1,same,0.9797230245985702,0.15861410029545797,0,0,0,0.3875227642884056,0,0,7.5569907454628265
11,26,female,1,105,155,left,change,valid,clock,2,1.1282282952652167,1,f,1,change,2.3851374453061,0.15792200129019668,0,0,0,0.3875185947117643,0,0,6.160845295209583
11,26,female,2,165,165,left,same,valid,anti,1,0.889464825124378,0,f,0,change,0.5093799453588872,0.1572540196393828,0,0,0,0.38745508884039737,0,0,4.794160154106976
11,26,female,3,15,25,right,same,catch,anti,2,1.0974022891614368,1,j,1,same,2.10156641399044,0,0,0,0,0.3874169211712797,0,0,7.562306956587236
11,26,female,4,105,55,right,change,valid,anti,1,0.92018210148035,0,j,0,same,0.5449435535447265,0.15919887049543702,0,0,0,0.38749710535103077,0,0,4.24419001469596
11,26,female,5,75,75,right,same,valid,clock,1,0.4734170199581058,0,j,1,same,0.6844027657771221,0.16120565016660904,0,0,0,0.3874425801086545,0,0,3.895892068244393
11,26,female,6,105,155,right,change,valid,clock,1,0.40138692972232093,0,j,0,same,0.558171056590254,0.163046657240134,0,0,0,0.3874255810624163,0,0,4.138435420623864
11,26,female,7,135,85,right,change,valid,anti,1,0.4174407647396947,0,j,0,same,0.8309707866574172,0.16477412193402602,0,0,0,0.38745925841794815,0,0,4.403054119189619
11,26,female,8,165,215,left,change,valid,clock,2,1.2974419322199537,1,f,1,change,1.735780297913152,0.16645884443826486,0,0,0,0.38741627969830006,0,0,6.129950330710926
11,26,female,9,45,135,right,change,catch,anti,1,0.6253455136311459,0,f,1,change,2.0076633624375972,0,0,0,0,0.38747625746418635,0,0,7.45271442693047
11,26,female,10,45,45,right,same,valid,anti,2,2.4157790277959066,1,j,1,same,1.4323123642079736,0.16584408498036257,0,0,0,0.38746984272984264,0,0,7.092398475602749
11,26,female,11,15,15,right,same,valid,anti,3,1.1214245072360427,1,j,1,same,0.9654614663704706,0.16524112846539502,0,0,0,0.38747882335792383,0,0,4.711721515853242
11,26,female,12,165,115,right,change,valid,anti,1,0.8174510924609422,0,j,0,same,0.6804262719297185,0.16464681772854173,0,0,0,0.3875041615592636,0,0,4.496306075202483
11,26,female,13,75,15,right,same,catch,anti,1,0.3374227265057925,0,j,1,same,0.5954243058131397,0,0,0,0,0.3875849872119943,0,0,5.362750984501872
11,26,female,14,105,105,right,same,valid,anti,1,0.4563037915577297,0,j,1,same,0.8003311285892778,0.16628394633356275,0,0,0,0.38749325651042454,0,0,4.3938791245936955
11,26,female,15,165,165,left,same,valid,clock,2,1.1774164785547327,1,f,0,change,2.509652892307713,0.16807104894253205,0,0,0,0.387405374649461,0,0,6.649406540848759
11,26,female,16,135,45,left,same,catch,clock,2,1.4814424941514517,1,f,0,change,1.0885089014063851,0,0,0,0,0.387453164420549,0,0,7.468825353083048
11,26,female,17,75,25,left,change,valid,anti,2,1.8401406494658659,1,f,1,change,1.221380502158354,0.1674440528203695,0,0,0,0.38745925841794815,0,0,5.929044057036663
11,26,female,18,75,125,left,change,valid,clock,1,0.6494604246172457,0,f,1,change,0.8602595016645864,0.16683648386731664,0,0,0,0.3874749745182271,0,0,4.615387279966853
11,26,female,19,45,95,right,change,valid,clock,3,1.321359910861247,1,j,0,same,2.2901637745835615,0.16861196180265142,0,0,0,0.3874037709656477,0,0,6.652539817860088
11,26,female,20,45,45,left,same,valid,anti,1,0.5613957435671182,0,f,0,change,1.6138843076987541,0.16798163270243888,0,0,0,0.38745508884039737,0,0,5.42981286295344
11,26,female,21,105,105,left,same,valid,anti,2,1.017394193767359,1,j,1,same,1.4512874692654805,0.16980822997471323,0,0,0,0.3874429008446896,0,0,5.2149946340741735
11,26,female,22,75,125,right,change,valid,clock,2,1.0811367679107207,1,j,0,same,3.663964780542301,0.1691444749325796,0,0,0,0.38750929334673856,0,0,8.371543981664217
11,26,female,23,165,115,left,change,catch,anti,1,0.40142958770593395,0,j,0,same,0.46413457856124296,0,0,0,0,0.38745284368360444,0,0,5.721853268082668
11,26,female,24,45,355,right,change,valid,anti,1,0.42431992589717993,0,j,0,same,0.6400586691606804,0.1685086213504834,0,0,0,0.38746503167840274,0,0,4.114789426721472
11,26,female,25,165,215,right,change,valid,clock,2,1.5054451472851724,1,j,0,same,1.042328907808951,0.17033710840591082,0,0,0,0.38744707042224036,0,0,5.57873124251455
11,26,female,26,15,65,right,change,valid,clock,2,1.0014317687155199,1,j,0,same,1.23373624280066,0.16967106485379924,0,0,0,0.3874522022097153,0,0,5.783407455588531
11,26,female,27,75,75,left,same,valid,clock,3,1.0653991792987654,1,j,1,same,1.3514783717600949,0.16902762416548506,0,0,0,0.3875025578754503,0,0,5.962163972157214
11,26,female,28,15,15,right,same,valid,clock,4,1.4334448855643132,1,j,1,same,1.078132427059245,0.1684106169281242,0,0,0,0.38744482526544743,0,0,6.042376376842185
11,26,female,29,165,165,right,same,valid,clock,3,1.273337926282693,1,j,1,same,1.1591062607158165,0.1678164931980452,0,0,0,0.38747465378037305,0,0,5.724158723621258
11,26,female,30,75,25,right,change,valid,anti,2,2.353449298901978,1,j,0,same,1.066773856879081,0.1672419795491158,0,0,0,0.38744963631597784,0,0,6.997856516503816
11,26,female,31,75,75,left,same,valid,anti,2,0.6174297313955321,1,j,1,same,1.0740064699011782,0.16668404003353376,0,0,0,0.38748010630570207,0,0,4.631842356619018
11,26,female,32,105,105,right,same,valid,clock,2,0.5134905071554385,1,j,1,same,0.7921895477029466,0.1661398415142159,0,0,0,0.38747529525335267,0,0,4.669019270503668
11,26,female,33,45,45,right,same,valid,clock,1,0.4895677174645243,0,j,1,same,0.033411464798518864,0.16560672270322052,0,0,0,0.3874233359056234,0,0,3.571180137929332
11,26,female,34,45,45,left,same,valid,clock,1,0.6334274374876259,0,j,1,same,1.1311081902686055,0.167181269948588,0,0,0,0.3873935073906978,0,0,4.598068459327806
11,26,female,35,165,165,right,same,valid,anti,3,0.7054716401389669,1,j,1,same,1.825181168135714,0.1688113551886875,0,0,0,0.3874419386347654,0,0,5.826869846963746
11,26,female,36,15,65,left,change,valid,clock,2,0.6974384682644086,1,j,0,same,1.4004320965086663,0.16822904776684644,0,0,0,0.3874368068481999,0,0,4.902428041113126
11,26,female,37,45,355,left,same,catch,clock,1,0.4573933341935117,0,j,1,same,1.3441883468658489,0,0,0,0,0.38746727683610516,0,0,6.345905891997063
11,26,female,38,45,95,left,change,valid,clock,1,0.4961129916973732,0,f,1,change,1.6350538933911594,0.16766740065890162,0,0,0,0.3874201285389063,0,0,5.396415189834443
11,26,female,39,45,355,left,change,valid,anti,1,0.44952437951906177,0,j,0,same,0.05095736703424336,0.16930005577249663,0,0,0,0.3875301412326735,0,0,3.189232098560751
11,26,female,40,135,135,left,same,valid,anti,2,0.6254231319171595,1,j,1,same,1.4334881850209058,0.17099884745959404,0,0,0,0.3875606112214882,0,0,4.829793362161581
11,26,female,41,15,15,left,same,valid,clock,3,1.313418790425203,1,j,1,same,0.8251622446696274,0.17039916718910986,0,0,0,0.387429109166078,0,0,5.016437436133856
11,26,female,42,135,135,right,same,valid,anti,3,0.34543793712418847,1,j,1,same,1.0557033082714042,0.16978560329592118,0,0,0,0.38745188147368026,0,0,4.310889781391779
11,26,female,43,105,15,left,same,catch,anti,1,0.4653488877811469,0,j,1,same,0.42972882993308303,0,0,0,0,0.38744225937261945,0,0,5.440876355352884
11,26,female,44,105,55,left,change,valid,anti,2,0.8077924268927745,1,j,0,same,3.4915524362841097,0.16918826418107275,0,0,0,0.3874845966192879,0,0,7.463150879042587
11,26,female,45,135,185,right,change,valid,clock,1,0.40149277283944684,0,j,0,same,0.2562500360827471,0.16861558161106305,0,0,0,0.3874409764257507,0,0,3.7484400969651688
11,26,female,46,165,115,left,change,valid,anti,2,1.9294308655207715,1,j,0,same,0.9682627808770121,0.17026412997056328,0,0,0,0.38738580970948533,0,0,5.747400268520323
11,26,female,47,15,355,right,change,catch,anti,1,0.4814716811924882,0,j,0,same,0.3817135808258172,0,0,0,0,0.38750544450522284,0,0,5.440663706907799
11,26,female,48,135,185,left,change,valid,clock,1,0.3603342333208275,0,j,0,same,0.6791436457888267,0.1696624315337889,0,0,0,0.38749165282752074,0,0,4.087376700786081
11,26,female,49,15,325,left,change,valid,anti,1,0.32138332464182895,0,j,0,same,1.90625122280926,0.17128583401001152,0,0,0,0.38757568584696855,0,0,5.334528719085938
11,26,female,50,105,105,left,same,valid,clock,2,0.6973476997718535,1,j,1,same,2.4994258812721455,0.17276607878464323,0,0,0,0.38748908693378326,0,0,6.102346445692092
11,26,female,51,135,85,left,change,valid,anti,2,0.5854102639596022,1,j,0,same,1.7334658617455716,0.17223323261296558,0,0,0,0.38750929334582906,0,0,5.0096474397832935
11,26,female,52,75,75,right,same,valid,anti,2,0.3534290924881134,1,j,1,same,0.8957361901993863,0.17169333701185413,0,0,0,0.387484917355323,0,0,4.088897955047287
11,26,female,53,15,165,left,same,catch,anti,1,0.9051777170088826,0,f,0,change,3.106718728650776,0,0,0,0,0.38752629239297676,0,0,8.809624795771015
11,26,female,54,135,135,right,same,valid,clock,1,0.8553464565975446,0,j,1,same,0.5040095297290463,0.1711439773527339,0,0,0,0.3874377690581241,0,0,5.033148460688608
11,26,female,55,15,325,right,change,valid,anti,2,0.5854484316296293,1,f,1,change,2.6922133463685896,0.172603680004969,0,0,0,0.3874169211712797,0,0,6.096328783361969
11,26,female,56,15,15,left,same,valid,anti,2,0.6013922539514169,1,j,1,same,1.089847335736522,0.17207991424752678,0,0,0,0.38748844545989414,0,0,4.803244380211254
11,26,female,57,105,15,right,same,catch,clock,2,0.4973795810028605,1,j,1,same,1.6431752678636258,0,0,0,0,0.3875285375497697,0,0,6.876014730796669
11,26,female,58,135,135,left,same,valid,clock,2,0.8403183376085508,1,j,1,same,2.068527965996509,0.1715484465176469,0,0,0,0.3874044124395368,0,0,6.196262005976678
11,26,female,1,135,85,right,change,valid,anti,2,2.2632597370857184,1,j,0,same,2.0943145567644024,0.17100694553636125,0,0,0,0.38752885828671424,0,0,7.1291545829108145
11,26,female,2,135,135,left,same,valid,anti,2,1.0414273168898944,1,j,1,same,1.1390954967928337,0.17045303811678747,0,0,0,0.38748427588143386,0,0,5.250917788122024
11,26,female,3,75,75,left,same,valid,clock,2,0.5213581788830197,1,j,1,same,2.763236002568192,0.16988455065857633,0,0,0,0.3875673466927765,0,0,6.728712864301087
11,26,female,4,105,15,right,same,catch,clock,2,0.3769262645528215,1,j,1,same,2.9993466593023186,0,0,0,0,0.3874403349518616,0,0,7.9984104288187154
11,26,female,5,75,25,left,change,valid,anti,2,1.1524047877010162,1,j,0,same,0.9270561308494507,0.16932574613662177,0,0,0,0.3875282168128251,0,0,5.5839371202082475
11,26,female,6,45,355,right,change,valid,anti,2,0.6333674597199206,1,f,1,change,2.347630493338329,0.1687900920026339,0,0,0,0.38740505391251645,0,0,6.085849994002274
11,26,female,7,105,155,right,change,valid,clock,2,0.6014381193026566,1,f,1,change,1.5303295056610295,0.16827489013707664,0,0,0,0.3875445743860837,0,0,4.968653438201727
11,26,female,8,105,105,right,same,valid,anti,3,1.633427758223661,1,j,1,same,1.1485447212835425,0.1677776448841809,0,0,0,0.3874483533700186,0,0,5.798474704457476
11,26,female,9,45,45,right,same,valid,clock,3,1.9214486907849277,1,j,1,same,1.1488837399956537,0.16729603754883365,0,0,0,0.3875064067160565,0,0,6.298032408521067
11,26,female,10,165,165,right,same,valid,anti,2,0.5534013808355667,1,j,1,same,1.054540958400139,0.1668279035829059,0,0,0,0.38745925841794815,0,0,5.025936374815501
11,26,female,11,75,125,left,change,valid,clock,3,0.8894452601853118,1,j,0,same,2.104926772599356,0.16637121209021305,0,0,0,0.3874647109423677,0,0,6.3374198398751105
11,26,female,12,135,135,right,same,valid,clock,3,0.5775329701318697,1,j,1,same,1.0350962947850348,0.16592404732754185,0,0,0,0.3874538058944381,0,0,4.506606534946513
11,26,female,13,15,325,left,change,valid,anti,3,0.8412856795548578,1,j,0,same,3.7636353197840435,0.16548459192012904,0,0,0,0.3874775404110551,0,0,7.812619835256555
11,26,female,14,165,165,left,same,valid,clock,3,0.6814596856393109,1,f,0,change,0.805044354680831,0.16505111154474122,0,0,0,0.38748363440936373,0,0,4.5641053273729995
11,26,female,15,165,115,left,change,valid,anti,1,0.8253460268097115,0,j,0,same,1.381641094328188,0.16462194086299115,0,0,0,0.3874903698797425,0,0,5.3997636811855045
11,26,female,16,45,95,left,change,valid,clock,3,0.28141632203460176,1,j,0,same,2.083454090708983,0.16580807672787767,0,0,0,0.38748010630479257,0,0,5.512930821580085
11,26,female,17,45,45,left,same,valid,anti,2,0.3214054554746326,1,j,1,same,1.9093055985877072,0.16537896467623958,0,0,0,0.38740248801968846,0,0,5.17304355412125
11,26,female,18,45,45,right,same,valid,anti,3,0.5934261160518872,1,j,1,same,0.9731982775156212,0.1649552470875022,0,0,0,0.3875577245908062,0,0,4.424206385098842
11,26,female,19,105,105,left,same,valid,anti,3,1.1133371308560527,1,j,1,same,3.609739427074601,0.16450632656717729,0,0,0,0.3875275753398455,0,0,7.887359509298221
11,26,female,20,15,25,right,same,catch,anti,1,0.40938866939814034,0,f,0,change,0.46096505829973466,0,0,0,0,0.3874467496862053,0,0,5.893261385672304
11,26,female,21,15,15,right,same,valid,clock,3,0.6403001839107674,1,j,1,same,1.3063545641798555,0.16405958433348783,0,0,0,0.38747850262188877,0,0,5.0865203337461935
11,26,female,22,165,165,left,same,valid,anti,2,0.6334360973787625,1,j,1,same,1.2212785078818342,0.16361319317296097,0,0,0,0.3874563717881756,0,0,5.143682352616452
11,26,female,23,45,95,right,change,valid,clock,2,1.5535059410058238,1,f,1,change,2.0143462327232555,0.16316535682525124,0,0,0,0.3874547681034528,0,0,6.730456709844475
11,26,female,24,165,165,right,same,valid,clock,2,0.2895271121951737,1,j,1,same,1.0932939725234974,0.16271429610603222,0,0,0,0.3875121799765111,0,0,4.61339582567598
11,26,female,25,15,65,right,change,valid,clock,2,0.8014521034228892,1,f,1,change,1.566015956010233,0.1622582355356938,0,0,0,0.3874701634667872,0,0,5.498150311338577
11,26,female,26,45,45,left,same,valid,clock,2,0.42536969717912143,1,j,1,same,1.4004747544913698,0.16179539031176865,0,0,0,0.3875314241804517,0,0,4.829940259578507
11,26,female,27,105,105,right,same,valid,clock,2,0.4494092350369101,1,j,1,same,0.8719250168869621,0.16132395347292938,0,0,0,0.3874813892516613,0,0,4.312104732085572
11,26,female,28,105,55,right,change,valid,anti,2,0.47331791231226816,1,j,0,same,2.663692795804309,0.16084208310972287,0,0,0,0.3874855588292121,0,0,6.276597252825923
11,26,female,29,15,355,right,change,catch,anti,1,0.8174789965560194,0,j,0,same,0.4531406860296556,0,0,0,0,0.38755387575019995,0,0,5.799748670707231
11,26,female,30,105,55,left,change,valid,anti,2,1.7521176641903367,1,f,1,change,2.1576776993688327,0.16034788948217593,0,0,0,0.38745829620802397,0,0,7.311972909294127
11,26,female,31,75,75,right,same,valid,clock,1,0.30549851787600346,0,j,1,same,0.4656320983049227,0.15983998467740107,0,0,0,0.38749806756186445,0,0,3.833704746454714
11,26,female,32,15,165,left,same,catch,anti,1,0.9053024835930046,0,j,1,same,2.2491489251151506,0,0,0,0,0.3874361653743108,0,0,7.874301355241187
11,26,female,33,15,15,right,same,valid,anti,4,0.9762565021346745,1,j,1,same,0.6055345686827422,0.1612041780241023,0,0,0,0.38752725460290094,0,0,5.1393681230038055
11,26,female,34,135,185,right,change,valid,clock,3,1.3454209380779503,1,f,1,change,1.7145449611934964,0.1607272967950646,0,0,0,0.3874012050719102,0,0,5.909574696695017
11,26,female,35,135,135,left,same,valid,clock,1,1.2334187134483727,0,f,0,change,0.8058949484602635,0.16023776755188107,0,0,0,0.3875115385035315,0,0,5.164253764326531
11,26,female,36,15,65,left,change,valid,clock,3,2.0493661921691455,1,f,1,change,1.2156864631779172,0.16154873906657063,0,0,0,0.38742942990393203,0,0,6.33517115473478
11,26,female,37,15,15,left,same,valid,clock,3,0.49748029233160196,1,j,1,same,2.102799005203451,0.16108767106099892,0,0,0,0.3874749745173176,0,0,5.400415097462428
11,26,female,38,165,115,left,change,catch,anti,1,0.4014552466433088,0,j,0,same,0.4879746181786686,0,0,0,0,0.3875269338659564,0,0,5.206951840098554
11,26,female,39,75,15,right,same,catch,anti,2,1.2401105643612027,1,j,1,same,0.8518209185776868,0,0,0,0,0.38753463154716883,0,0,6.704537334074303
11,26,female,40,105,15,left,same,catch,anti,1,0.4324393759488885,0,j,1,same,0.32381130160683824,0,0,0,0,0.3874303921138562,0,0,5.690638529074931
11,26,female,41,75,25,right,change,valid,anti,2,1.7043564385649006,1,j,0,same,0.8782861882427824,0.16061545541172406,0,0,0,0.3874631072585544,0,0,5.808641096252359
11,26,female,42,165,115,right,change,valid,anti,3,1.1853620893043626,1,f,1,change,1.4986157003186236,0.16013028759958814,0,0,0,0.38744129716178577,0,0,5.411650504744102
11,26,female,43,135,45,left,same,catch,clock,2,0.4093963670793528,1,f,0,change,3.1506901291995746,0,0,0,0,0.38755227206638665,0,0,8.388511274857592
11,26,female,44,105,105,left,same,valid,clock,1,0.9121216669846035,0,f,0,change,1.5347521442854486,0.15963731900110434,0,0,0,0.38745027778986696,0,0,6.075579683509204
11,26,female,45,45,355,left,same,catch,clock,1,0.897446037651207,0,f,0,change,0.7499571816479147,0,0,0,0,0.38752468870916346,0,0,6.423674282880711
11,26,female,46,75,75,left,same,valid,anti,1,0.3043682416755473,0,f,0,change,0.8872296109275339,0.16097422374488274,0,0,0,0.38751602881711733,0,0,4.457023845491676
11,26,female,47,165,215,right,change,valid,clock,3,0.43308501896535745,1,j,0,same,1.2670367326936685,0.16219096423365842,0,0,0,0.3874127515937289,0,0,4.857563068064337
11,26,female,48,75,75,right,same,valid,anti,3,0.3533707184060404,1,j,1,same,2.5844509404323617,0.1617575384156678,0,0,0,0.38747529525426216,0,0,6.06786179583105
11,26,female,49,15,325,right,change,valid,anti,2,1.2013732663372139,1,j,0,same,0.9280898652968972,0.16131564098335666,0,0,0,0.3874387312680483,0,0,5.031368371895951
11,26,female,50,45,135,right,change,catch,anti,1,1.0574468330778473,0,j,0,same,0.37945078327174997,0,0,0,0,0.3874259017993609,0,0,5.939919597718472
11,26,female,51,135,135,right,same,valid,anti,4,1.832168738304972,1,j,1,same,0.5352194576853435,0.16086364292801603,0,0,0,0.3866782645063722,0,0,5.373722425461892
11,26,female,52,15,15,left,same,valid,anti,3,1.3932604234623795,1,j,1,same,2.773240101583724,0.16039986976372628,0,0,0,0.38746663536312553,0,0,6.909234074299093
11,26,female,53,165,215,left,change,valid,clock,3,0.6092817357757667,1,f,1,change,2.2226066786361116,0.15992236027457607,0,0,0,0.3875035200853745,0,0,5.797825212600401
11,26,female,54,45,355,left,change,valid,anti,2,0.47330829021029786,1,f,1,change,1.9551244426393168,0.15944952059287304,0,0,0,0.38750127492858155,0,0,5.265117444164389
11,26,female,55,105,155,left,change,valid,clock,1,0.5294654409390205,0,j,0,same,0.4415909567642302,0.15899589455972707,0,0,0,0.3874499570538319,0,0,3.9187448802404106
11,26,female,56,75,125,right,change,valid,clock,1,0.6892516635007269,0,j,0,same,0.7730194347204815,0.16029579011808914,0,0,0,0.38750929334673856,0,0,4.274311362226399
11,26,female,57,135,185,left,change,valid,clock,1,0.3293533113828744,0,j,0,same,1.1000579891997404,0.1615277853593612,0,0,0,0.387474333044338,0,0,4.39841851138317
11,26,female,58,135,85,left,change,valid,anti,3,0.4093341441557641,1,j,0,same,2.452768310698957,0.16265477447721194,0,0,0,0.3874894076698183,0,0,6.0209931804956796
11,26,female,1,165,215,left,change,valid,clock,2,1.9194537083903924,1,f,1,change,3.7779000853797697,0.16224931989446678,0,0,0,0.38754489512211876,0,0,8.337305657602883
11,26,female,2,135,135,left,same,valid,anti,2,1.3372389443657084,1,j,1,same,1.944146266207099,0.16183732279152258,0,0,0,0.38753944259769924,0,0,6.084707209070984
11,26,female,3,135,185,left,change,valid,clock,2,0.4575694186514738,1,j,0,same,0.007914820024780056,0.16141732984925566,0,0,0,0.3874781818849442,0,0,3.759977958971831
11,26,female,4,15,325,left,change,valid,anti,2,0.31350859670601494,1,f,1,change,1.1919182685860505,0.16098785571815422,0,0,0,0.38748523809226754,0,0,4.2393969251616
11,26,female,5,15,165,left,same,catch,anti,2,0.4094284407510713,1,f,0,change,1.2980952729176352,0,0,0,0,0.3874951809302729,0,0,6.158468956855359
11,26,female,6,45,45,right,same,valid,anti,1,1.1602868925801886,0,j,1,same,0.9332168417568028,0.16054737377058687,0,0,0,0.3874563717872661,0,0,5.398718079480204
11,26,female,7,105,105,right,same,valid,anti,1,0.36144494457948895,0,j,1,same,0.3392191728707985,0.16172566161667534,0,0,0,0.3875266131299213,0,0,3.5363157357924138
11,26,female,8,15,15,right,same,valid,clock,1,0.32146190513776673,0,j,1,same,0.36862014572943735,0.16280775045225276,0,0,0,0.3875211606045923,0,0,3.6655145803706546
11,26,female,9,45,45,right,same,valid,clock,3,1.1935184240792296,1,j,1,same,1.0434915784162513,0.1638236933621554,0,0,0,0.38750768966292526,0,0,5.077486142569796
11,26,female,10,75,15,right,same,catch,anti,1,0.8973921538818104,0,j,1,same,2.7943179565727405,0,0,0,0,0.3874457874762811,0,0,8.669514808734675
11,26,female,11,135,185,right,change,valid,clock,1,0.3708617746624441,0,j,0,same,1.98603897207704,0.16344835811626368,0,0,0,0.3874781818840347,0,0,5.7640898037161605
11,26,female,12,135,135,right,same,valid,clock,1,0.5374440875712025,0,j,1,same,0.7513559144817918,0.16443058861100518,0,0,0,0.3875253301821431,0,0,4.1582854954513095
11,26,female,13,75,125,right,change,valid,clock,3,0.5135482397645319,1,j,0,same,0.7719924357452328,0.1653882324856289,0,0,0,0.38736688624339877,0,0,4.359625725906881
11,26,female,14,15,25,right,same,catch,anti,1,0.473455187628133,0,j,1,same,0.4998925531990608,0,0,0,0,0.3874756159912067,0,0,5.503243610442951
11,26,female,15,105,105,left,same,valid,anti,4,0.9442832207860192,1,j,1,same,1.0903059892452802,0.1650442960154062,0,0,0,0.3874999919817128,0,0,5.09786062193416
11,26,female,16,165,115,right,change,valid,anti,3,0.47342407616633864,1,j,0,same,1.42770113239294,0.16470324388175478,0,0,0,0.38755291354027577,0,0,5.362671441795101
11,26,female,17,45,45,left,same,valid,clock,2,0.20146211040901107,1,j,1,same,0.9610673733141084,0.1643404864750918,0,0,0,0.38744322158254363,0,0,4.186554267690553
11,26,female,18,135,135,left,same,valid,clock,3,0.6494219362111835,1,j,1,same,0.8978049420402385,0.16397837052294023,0,0,0,0.38744386305552325,0,0,4.956856100187906
11,26,female,19,75,75,right,same,valid,clock,3,0.641496852610544,1,j,1,same,0.8653797426532037,0.1636156632830344,0,0,0,0.3875711955324732,0,0,4.618321700211709
11,26,female,20,105,15,left,same,catch,anti,1,0.4414219285126819,0,j,1,same,0.47504636249323084,0,0,0,0,0.3874897284067629,0,0,5.612457670771619
11,26,female,21,45,355,left,same,catch,clock,1,0.29614198629769817,0,j,1,same,0.4377148535104425,0,0,0,0,0.3875638185891148,0,0,5.253501963870804
11,26,female,22,165,115,left,change,catch,anti,1,0.2243527693362921,0,j,0,same,1.472923406146947,0,0,0,0,0.38753366933724465,0,0,6.376903812982164
11,26,female,23,105,55,right,change,valid,anti,1,0.4002736525690125,0,f,1,change,0.5155679188874274,0.16325114425800852,0,0,0,0.38748844545989414,0,0,4.292941675310431
11,26,female,24,45,355,right,change,valid,anti,2,2.5771570666956904,1,j,0,same,0.8580743223956233,0.16420701975576546,0,0,0,0.38749902977087913,0,0,6.626044078206178
11,26,female,25,135,85,left,change,valid,anti,1,0.24135245694014884,0,j,0,same,1.5428119373082154,0.16385051634099124,0,0,0,0.3874201285379968,0,0,4.80219172229863
11,26,female,26,165,115,left,change,valid,anti,3,1.3774535557195122,1,j,0,same,1.1754179680556263,0.16478040447266412,0,0,0,0.38742301516867883,0,0,5.356226878891903
11,26,female,27,105,55,left,change,valid,anti,3,0.425473615876399,1,j,0,same,0.7174283843014564,0.16442866124983563,0,0,0,0.38752148134244635,0,0,4.492114687753201
11,26,female,28,15,15,left,same,valid,clock,3,0.553461358601453,1,j,1,same,0.768902458190496,0.1640777577322387,0,0,0,0.38753944259860873,0,0,4.422294794249865
11,26,female,29,105,155,left,change,valid,clock,3,0.9293455495535454,1,f,1,change,1.9177788212418818,0.16372652609865446,0,0,0,0.3874724086235801,0,0,5.950373690352535
11,26,female,30,15,65,left,change,valid,clock,3,0.5773633004064322,1,j,0,same,2.190891590346837,0.16337381120000705,0,0,0,0.3875211606055018,0,0,5.7572831290563045
11,26,female,31,15,15,left,same,valid,anti,3,1.0974423812522218,1,j,1,same,0.7691314642079305,0.16301846353965377,0,0,0,0.3874855588292121,0,0,4.59099140361468
11,26,female,32,15,15,right,same,valid,anti,4,4.401491489892578,1,j,1,same,1.0032487422313352,0.1626593324332788,0,0,0,0.38744546673933655,0,0,8.508156976247847
11,26,female,33,75,125,left,change,valid,clock,1,0.6333806099255526,0,j,0,same,0.564623958647644,0.16229525928361233,0,0,0,0.3875201983946681,0,0,4.14904507056508
11,26,female,34,15,325,right,change,valid,anti,1,0.4174083703301221,0,j,0,same,0.8755544736031879,0.16325800505106686,0,0,0,0.387461182838706,0,0,4.1021447022958455
11,26,female,35,105,155,right,change,valid,clock,3,1.6654145105139833,1,f,1,change,1.4130033722258304,0.16417131114284572,0,0,0,0.3874926150374449,0,0,6.342118312078128
11,26,female,36,45,355,left,change,valid,anti,3,0.33745736607124854,1,j,0,same,1.0411155607989713,0.16383087497964566,0,0,0,0.38744642894926073,0,0,4.847098391121108
11,26,female,37,165,165,right,same,valid,clock,3,1.1454685354074172,1,j,1,same,0.8031520080367045,0.1634892517175242,0,0,0,0.3874461082123162,0,0,4.9780847014362735
11,26,female,38,165,165,left,same,valid,anti,3,0.7134663236065535,1,j,1,same,0.643497929003388,0.16314535263428903,0,0,0,0.3874951809302729,0,0,4.360308253645599
11,26,female,39,15,65,right,change,valid,clock,4,1.1054633651310724,1,j,0,same,0.7875991637747575,0.16279808917269073,0,0,0,0.3874935772473691,0,0,4.998803331299314
11,26,female,40,135,85,right,change,valid,anti,2,1.2574848724534604,1,j,0,same,0.7116981020726598,0.1624463667318285,0,0,0,0.3874756159912067,0,0,5.19776722340157
11,26,female,41,75,75,right,same,valid,anti,1,0.273455315922547,0,j,1,same,0.5774389942725975,0.16208907851707793,0,0,0,0.38757825174070604,0,0,3.8418107255647556
11,26,female,42,165,165,left,same,valid,clock,1,0.40114252834246145,0,j,1,same,0.8876003825744192,0.16303567593267682,0,0,0,0.38741724190822424,0,0,4.346856876371021
11,26,female,43,75,25,right,change,valid,anti,1,0.8094445417345923,0,f,1,change,1.674932693399569,0.16392924287183086,0,0,0,0.38757664805780223,0,0,5.7128976574031185
11,26,female,44,45,135,right,change,catch,anti,3,1.377462857084538,1,j,0,same,0.7797933942347299,0,0,0,0,0.3874483533700186,0,0,6.7202303402827965
11,26,female,45,75,25,left,change,valid,anti,2,0.4080495935950239,1,f,1,change,1.5064198661766568,0.1647905442142094,0,0,0,0.3874403349518616,0,0,5.197114524176868
11,26,female,46,15,355,right,change,catch,anti,1,0.32141154947294126,0,j,0,same,2.573727428954953,0,0,0,0,0.387530141233583,0,0,7.375396991874368
11,26,female,47,75,75,left,same,valid,clock,2,0.552215296446775,1,j,1,same,0.5967341945752196,0.16446444030683,0,0,0,0.38748170998860587,0,0,4.132844658867725
11,26,female,48,105,15,right,same,catch,clock,2,0.5853368152511393,1,f,0,change,2.8332172266409543,0,0,0,0,0.3874807477786817,0,0,7.90502761222433
11,26,female,49,105,105,right,same,valid,clock,2,0.3280148770518281,1,j,1,same,2.252811096976984,0.16413906681640572,0,0,0,0.3874733708335043,0,0,5.934644440894772
11,26,female,50,165,165,right,same,valid,anti,4,0.8734655153502899,1,j,1,same,0.4890561423962936,0.1638134036578618,0,0,0,0.38750704818903614,0,0,4.469641628033969
11,26,female,51,165,215,right,change,valid,clock,3,0.5694000491366751,1,j,0,same,1.2971558350664054,0.16348644109663363,0,0,0,0.38748042704082764,0,0,4.662538785088145
11,26,female,52,105,105,left,same,valid,clock,3,0.3454805951078015,1,j,1,same,0.8091228428047543,0.16315717402974256,0,0,0,0.387474333044338,0,0,4.2288594409810685
11,26,female,53,135,135,right,same,valid,anti,3,0.40144273791156593,1,j,1,same,0.6995360864093527,0.16282459640411945,0,0,0,0.3875211606045923,0,0,4.416120612402665
11,26,female,54,135,45,left,same,catch,clock,1,0.6575032185928649,0,j,1,same,0.36195042564941105,0,0,0,0,0.3873983184421377,0,0,5.518816981854798
11,26,female,55,45,45,left,same,valid,anti,3,0.4001280380980461,1,j,1,same,2.392354021493702,0.16248769572289923,0,0,0,0.3874647109423677,0,0,6.100060234355624
11,26,female,56,45,95,left,change,valid,clock,1,0.48945513887611014,0,j,0,same,0.35257368765815045,0.1621454475924991,0,0,0,0.38746246578557475,0,0,3.927195651323018
11,26,female,57,75,75,left,same,valid,anti,3,1.129372363143375,1,j,1,same,1.5658417959712096,0.16305214573278387,0,0,0,0.38740761980716343,0,0,5.721575830821166
11,26,female,58,45,95,right,change,valid,clock,1,0.7854274554483709,0,j,0,same,0.298115800067535,0.16272289345859503,0,0,0,0.38754970617264917,0,0,4.491134837076061
11,26,female,1,165,165,right,same,valid,anti,1,1.2478239617266809,0,j,1,same,2.750895015815331,0.1635911690022387,0,0,0,0.3874352031652961,0,0,7.112552608841725
11,26,female,2,105,155,right,change,valid,clock,1,0.35336302072391845,0,j,0,same,1.4139094534584729,0.16442146570627525,0,0,0,0.3874563717872661,0,0,4.786832603014773
11,26,female,3,135,85,left,change,valid,anti,2,0.5453935471614386,1,j,0,same,1.376041672680003,0.1652317768291522,0,0,0,0.387546178069897,0,0,4.820016344743635
11,26,female,4,15,15,right,same,valid,anti,3,0.8574742239925399,1,j,1,same,1.05131178110787,0.16494137045087476,0,0,0,0.38756830890270066,0,0,4.950893925310083
11,26,female,5,45,45,left,same,valid,anti,3,0.7134679272894573,1,j,1,same,0.8276960647526721,0.1646329286342742,0,0,0,0.38743103358683584,0,0,4.892444789984438
11,26,female,6,135,135,left,same,valid,anti,3,0.5293602392939647,1,j,1,same,0.8116463993137586,0.1643255760154156,0,0,0,0.3874489948429982,0,0,4.328279484845552
11,26,female,7,135,45,left,same,catch,clock,3,0.5534203043025627,1,j,1,same,1.4963846557002398,0,0,0,0,0.38749806756095495,0,0,6.767239759035874
11,26,female,8,165,165,right,same,valid,clock,1,0.33608557512161497,0,j,1,same,1.173710365763327,0.1640183857844928,0,0,0,0.38746503167931223,0,0,4.914131403267675
11,26,female,9,45,45,left,same,valid,clock,4,1.3373091857083637,1,j,1,same,3.238594762626235,0.1648192517021554,0,0,0,0.3875243679722189,0,0,7.741641119988344
11,26,female,10,45,95,left,change,valid,clock,2,0.5454285074647487,1,j,0,same,1.4202340608280792,0.16451563212635723,0,0,0,0.38748523809226754,0,0,5.388163916990379
11,26,female,11,165,165,left,same,valid,anti,1,0.30546451978443656,0,j,1,same,0.6606432310763921,0.16421271128711423,0,0,0,0.3874897284058534,0,0,3.9807092900100542
11,26,female,12,165,215,left,change,valid,clock,1,0.23347548384663241,0,j,0,same,0.48176451381732477,0.16500103651844245,0,0,0,0.38740409170350176,0,0,3.9456989526679536
11,26,female,13,135,135,left,same,valid,clock,1,0.3373226566491212,0,j,1,same,1.8261526796577527,0.16584415970813376,0,0,0,0.38743007137600216,0,0,5.197632513978533
11,26,female,14,135,135,right,same,valid,clock,2,1.201458903042294,1,j,1,same,0.9719406688382151,0.16669842124959044,0,0,0,0.3874570132611552,0,0,4.8817206370349595
11,26,female,15,135,85,right,change,valid,anti,2,2.2093525544441945,1,f,1,change,5.03011589500602,0.1664035723373989,0,0,0,0.3875477817528008,0,0,10.085689625642772
11,26,female,16,165,215,right,change,valid,clock,1,1.1134914052181557,0,j,0,same,0.8706802376782434,0.16611441180229236,0,0,0,0.38739703549435944,0,0,5.09474241954922
11,26,female,17,135,185,left,change,valid,clock,1,0.40144081349171756,0,f,1,change,0.5272032848570234,0.16696775845822032,0,0,0,0.38750448229438916,0,0,4.12790050233707
11,26,female,18,165,115,left,change,valid,anti,2,1.3294504946079542,1,j,0,same,0.6099924883474159,0.16785789800263257,0,0,0,0.3874377690572146,0,0,4.816452318318625
11,26,female,19,45,135,right,change,catch,anti,1,0.6094395382406219,0,f,1,change,0.6799015466567653,0,0,0,0,0.38750127492858155,0,0,5.908828983823696
11,26,female,20,15,325,right,change,valid,anti,1,0.44819909539546643,0,j,0,same,0.9750986425769952,0.16754224885372127,0,0,0,0.38745284368451394,0,0,4.672349800597658
11,26,female,21,75,75,right,same,valid,anti,4,1.8655263193340943,1,j,1,same,0.4918212136544753,0.16846315112205718,0,0,0,0.387421411485775,0,0,5.4309591759902105
11,26,female,22,105,105,left,same,valid,clock,1,0.4894208200475987,0,f,0,change,0.44355354475010245,0.16813258006127385,0,0,0,0.3874894076689088,0,0,3.6724777745494066
11,26,female,23,105,15,right,same,catch,clock,1,0.3294816060697485,0,f,0,change,0.35360966726148035,0,0,0,0,0.3874983882978995,0,0,5.160301004996654
11,26,female,24,135,135,right,same,valid,anti,1,0.5679288298033498,0,f,0,change,2.559662482335625,0.1690930961228856,0,0,0,0.3875227642874961,0,0,6.3202751792759955
11,26,female,25,75,75,right,same,valid,clock,1,0.3453917510360043,0,j,1,same,0.8314900594068604,0.17013641823654485,0,0,0,0.38751410439726897,0,0,4.065121742036354
11,26,female,26,105,105,right,same,valid,clock,2,1.0174695668974891,1,j,1,same,0.383673923653987,0.17114012757261404,0,0,0,0.38748748324906046,0,0,4.41572995507704
11,26,female,27,15,25,right,same,catch,anti,1,0.2894793224240857,0,j,1,same,0.41559909449642873,0,0,0,0,0.38752949975969386,0,0,5.503088694609687
11,26,female,28,15,65,right,change,valid,clock,2,0.7283026420373062,1,j,0,same,0.6930389226836269,0.170788935112756,0,0,0,0.3874733708344138,0,0,4.739764810177803
11,26,female,29,45,95,right,change,valid,clock,2,0.9533645602605247,1,j,0,same,1.3661135882666713,0.17042762131068112,0,0,0,0.38755547943401325,0,0,5.091863807490881
11,26,female,30,105,155,left,change,valid,clock,3,0.5773334718924161,1,f,1,change,1.9707343780373776,0.17005510687330233,0,0,0,0.38741307233067346,0,0,5.700961761127473
11,26,female,31,45,355,left,change,valid,anti,2,0.4974325025596045,1,f,1,change,0.857719266847198,0.16967715952576484,0,0,0,0.38748106851562625,0,0,4.197906743875137
11,26,female,32,75,75,left,same,valid,anti,2,0.49737765658210265,1,f,0,change,0.40609213739662664,0.16931359012031855,0,0,0,0.3874522022106248,0,0,4.184142648296984
11,26,female,33,45,45,right,same,valid,clock,2,0.905421476914853,1,j,1,same,0.7322101774898329,0.16896406237940803,0,0,0,0.3875638185891148,0,0,4.506221971620107
11,26,female,34,75,75,left,same,valid,clock,1,0.2494792839352158,0,j,1,same,0.4606815270399238,0.16862739548742678,0,0,0,0.38752468870916346,0,0,3.604605715143407
11,26,female,35,15,65,left,change,valid,clock,1,0.47346673414904217,0,j,0,same,0.618008340437882,0.16960267638194487,0,0,0,0.3874339202175179,0,0,4.008059472285822
11,26,female,36,105,55,right,change,valid,anti,1,0.2894209483420127,0,j,0,same,1.2169524110104248,0.17062475062750304,0,0,0,0.3874791440939589,0,0,4.58148797461763
11,26,female,37,15,325,left,change,valid,anti,1,0.2735152936875238,0,j,0,same,0.311874443121269,0.17155794129131957,0,0,0,0.3874121101198398,0,0,3.7053927389060846
11,26,female,38,75,25,left,change,valid,anti,2,0.6654809030151227,1,f,1,change,0.5486329880277481,0.17241325998816026,0,0,0,0.38744867410787265,0,0,4.1668029797729105
11,26,female,39,15,15,left,same,valid,clock,1,0.24935323440513457,0,j,1,same,1.4409302391213714,0.17210684553721978,0,0,0,0.38748267219853005,0,0,4.568673580466566
11,26,female,40,15,355,right,change,catch,anti,1,0.24945137984104804,0,j,0,same,0.30572110915818485,0,0,0,0,0.3875243679722189,0,0,4.87907552130855
11,26,female,41,135,185,right,change,valid,clock,3,0.3034830083306588,1,j,0,same,0.385178178868955,0.17291965013524258,0,0,0,0.3874685597838834,0,0,4.024198623270422
11,26,female,42,45,45,right,same,valid,anti,3,0.4494515722817596,1,j,1,same,0.6132620784628671,0.1726252963483857,0,0,0,0.3875269338659564,0,0,4.030208587917514
11,26,female,43,45,355,right,change,valid,anti,3,0.8014290103801613,1,f,1,change,1.4208537241702288,0.17232628209659073,0,0,0,0.38744322158163413,0,0,5.3800916152358695
11,26,female,44,15,15,left,same,valid,anti,2,0.36140132438595174,1,f,0,change,1.8210202506743371,0.1720217873593063,0,0,0,0.38755387575110944,0,0,5.3009276988886995
11,26,female,45,75,25,right,change,valid,anti,2,1.1694333416089648,1,j,0,same,1.366085363437378,0.1717109742656555,0,0,0,0.38747144641274645,0,0,5.306976472678798
11,26,female,46,15,15,right,same,valid,clock,1,0.27341778972549946,0,j,1,same,0.6921180875615391,0.17139298319967933,0,0,0,0.3874489948429982,0,0,4.370559640672582
11,26,female,47,165,115,right,change,valid,anti,2,2.609467763073553,1,j,0,same,0.5174570581657463,0.17224095009167695,0,0,0,0.3874669560991606,0,0,6.226049466582481
11,26,female,48,105,15,left,same,catch,anti,1,0.20139828380160907,0,j,1,same,0.48982943862756656,0,0,0,0,0.3874191663271631,0,0,5.331600392837572
11,26,female,49,165,165,left,same,valid,clock,2,0.8000835198417917,1,f,0,change,1.510090697929627,0.17193824610562475,0,0,0,0.38745508884130686,0,0,5.48731807011427
11,26,female,50,105,55,left,change,valid,anti,2,0.48143479646932974,1,f,1,change,0.32159084129853,0.17162903252572692,0,0,0,0.38745284368451394,0,0,3.874198398754743
11,26,female,51,75,15,right,same,catch,anti,1,0.25746338309363637,0,j,1,same,0.45649013959155127,0,0,0,0,0.3874473911600944,0,0,5.191213289275765
11,26,female,52,75,125,right,change,valid,clock,1,0.2562282259859785,0,j,0,same,0.4046738396209548,0.17131246036236797,0,0,0,0.38747946483090345,0,0,3.760041785581052
11,26,female,53,165,115,left,change,catch,anti,1,0.2574742881406564,0,j,0,same,0.42114367016438337,0,0,0,0,0.3873611129820347,0,0,5.300529985355752
11,26,female,54,45,355,left,same,catch,clock,1,0.2872485985408275,0,f,0,change,4.913788856450992,0,0,0,0,0.3873909414960508,0,0,9.965010510541106
11,26,female,55,75,125,left,change,valid,clock,2,0.33644223435476306,1,f,1,change,1.4158107807306806,0.17215718103278133,0,0,0,0.3875298204966384,0,0,5.00374139383166
11,26,female,56,105,105,left,same,valid,anti,1,0.20920822292100638,0,j,1,same,1.2991418368346785,0.17185614496233237,0,0,0,0.3874894076689088,0,0,4.2259628676674765
11,26,female,57,105,105,right,same,valid,anti,3,0.5774957646717667,1,j,1,same,0.712331557093421,0.17265645540921604,0,0,0,0.3874935772473691,0,0,4.14135348329728
11,26,female,58,15,165,left,same,catch,anti,1,0.41738303212878236,0,j,1,same,1.434254745779981,0,0,0,0,0.3875314241813612,0,0,6.283101793495007
11,26,female,1,45,45,right,same,valid,clock,1,3.5201166070419276,0,j,1,same,2.498156405335976,0.1723683161115726,0,0,0,0.3874967846131767,0,0,9.025568489798388
11,26,female,2,15,325,right,change,valid,anti,2,1.2334139023969328,1,j,0,same,0.8288266616891633,0.17313140994201182,0,0,0,0.38748587956615665,0,0,5.181678428081796
11,26,female,3,165,115,left,change,catch,anti,1,0.35344801595419995,0,j,0,same,0.799893643705218,0,0,0,0,0.38746888052082795,0,0,5.830897658686808
11,26,female,4,45,45,left,same,valid,anti,2,0.6882666810361115,1,j,1,same,0.9199348134698084,0.1728537653182876,0,0,0,0.3874647109423677,0,0,4.845525177512172
11,26,female,5,105,155,left,change,valid,clock,1,0.969447261581081,0,f,1,change,0.5513778528729745,0.17257215049845687,0,0,0,0.38742782621920924,0,0,4.472134714553249
11,26,female,6,15,325,left,change,valid,anti,1,0.3213730610677885,0,j,0,same,0.6314626043440512,0.17331680238824487,0,0,0,0.3875269338659564,0,0,3.6651614492420777
11,26,female,7,135,135,right,same,valid,anti,3,0.4974677836016781,1,f,0,change,0.5301187816367019,0.17402444888939478,0,0,0,0.38740024286198604,0,0,4.190385467803935
11,26,female,8,75,25,left,change,valid,anti,3,0.2811613363428478,1,f,1,change,1.2017398684074578,0.17376133484776302,0,0,0,0.3873867719194095,0,0,4.512178373235656
11,26,female,9,45,95,left,change,valid,clock,1,0.8094657103592908,0,f,1,change,0.8199249347781006,0.17349663959304368,0,0,0,0.38746310725946387,0,0,4.706443151662825
11,26,female,10,75,25,right,change,valid,anti,3,0.6333902320275229,1,j,0,same,0.9586798091731907,0.1741909360531917,0,0,0,0.38755227206638665,0,0,4.433681268526925
11,26,female,11,75,75,right,same,valid,clock,3,0.36949671918409877,1,j,1,same,0.6068274583994935,0.17393167823781752,0,0,0,0.38746246578557475,0,0,4.0421348620930075
11,26,female,12,165,165,left,same,valid,clock,3,0.44944034649779496,1,f,0,change,0.5037802029746672,0.1736712760384973,0,0,0,0.3874813892525708,0,0,3.9842306584523612
11,26,female,13,135,185,right,change,valid,clock,3,0.28143075518892147,1,j,0,same,0.4365560317419295,0.17340905485571623,0,0,0,0.3875121799774206,0,0,3.6769491651557473
11,26,female,14,165,165,right,same,valid,clock,3,0.2735152936893428,1,j,1,same,0.6848925307476748,0.17314433853074823,0,0,0,0.387471767149691,0,0,3.961958700658215
11,26,female,15,75,75,left,same,valid,anti,3,1.0773552819882752,1,f,0,change,0.9956777519691968,0.17287644635241056,0,0,0,0.3874541266304732,0,0,5.373608884663554
11,26,female,16,105,105,left,same,valid,anti,1,0.33751381573529216,0,j,1,same,0.010124696022103308,0.17260469007580637,0,0,0,0.38749421871943923,0,0,3.8548214105867373
11,26,female,17,15,15,right,same,valid,clock,3,0.39345382770443393,1,j,1,same,0.7067388709165243,0.1733233109270339,0,0,0,0.3874945394582028,0,0,3.8564613374328474
11,26,female,18,15,25,right,same,catch,anti,3,0.35342620585834084,1,j,1,same,0.9066473326583946,0,0,0,0,0.38751891544961836,0,0,5.877710465831115
11,26,female,19,105,105,right,same,valid,clock,3,0.4564189360389719,1,j,1,same,0.3658002284937538,0.17306071088996294,0,0,0,0.3874743330452475,0,0,3.8313389924114745
11,26,female,20,45,45,left,same,valid,clock,3,0.4414203248288686,1,j,1,same,0.5795638750387297,0.17279473136660028,0,0,0,0.38749165282752074,0,0,3.919857836657684
11,26,female,21,15,165,left,same,catch,anti,2,0.43344488556431315,1,f,0,change,1.5100977541387692,0,0,0,0,0.38746406946847856,0,0,6.595214223261792
11,26,female,22,165,215,left,change,valid,clock,1,0.5522165793936438,0,f,1,change,1.178482928145968,0.17252469478429477,0,0,0,0.38748363440936373,0,0,5.20252471115964
11,26,female,23,45,355,left,same,catch,clock,1,0.36946464551147074,0,f,0,change,0.2785957633259386,0,0,0,0,0.3875455365960079,0,0,5.159992777009393
11,26,female,24,105,55,left,change,valid,anti,1,0.2483801191992825,0,f,1,change,0.8877017353788688,0.17323931949157817,0,0,0,0.38747946483090345,0,0,4.51392061509614
11,26,female,25,135,85,right,change,valid,anti,1,0.4574071258721233,0,j,0,same,2.002036036694335,0.1739170878609696,0,0,0,0.38745444736741774,0,0,5.6359314290548355
11,26,female,26,105,105,left,same,valid,clock,1,0.3454225417608541,0,j,1,same,0.7412398783508252,0.17457067391415154,0,0,0,0.38754264996532584,0,0,3.7710359988486744
11,26,female,27,105,15,right,same,catch,clock,1,0.28940362855973945,0,j,1,same,0.5919427087246731,0,0,0,0,0.3874865210400458,0,0,5.690293737103275
11,26,female,28,105,15,left,same,catch,anti,3,0.37605995467492903,1,j,1,same,2.1108950414745777,0,0,0,0,0.38748170998951537,0,0,7.219049708417515
11,26,female,29,165,165,right,same,valid,anti,3,0.3682224321983085,1,j,1,same,1.375814911820271,0.1752118203278722,0,0,0,0.38749870903484407,0,0,4.94655115012938
11,26,female,30,105,55,right,change,valid,anti,3,0.2974489884272771,1,j,0,same,0.5984289674015599,0.1749816131925746,0,0,0,0.38752148134153686,0,0,3.991906208884757
11,26,female,31,45,135,right,change,catch,anti,1,0.40947655126001337,0,f,1,change,0.2767970718014112,0,0,0,0,0.3874791440939589,0,0,5.300529985355752
11,26,female,32,75,125,left,change,valid,clock,3,0.8323076173037407,1,f,1,change,1.681544680868683,0.174736975805121,0,0,0,0.38751987765681406,0,0,5.803612265230186
11,26,female,33,165,165,left,same,valid,anti,1,0.553413568832184,0,f,0,change,1.052757020766876,0.17449318567374072,0,0,0,0.38741724190731475,0,0,4.462931495127123
11,26,female,34,135,185,left,change,valid,clock,1,0.49752647842069564,0,f,1,change,0.5187986998626002,0.17512661999704926,0,0,0,0.3874759367281513,0,0,4.31198958760433
11,26,female,35,75,125,right,change,valid,clock,3,2.7294544075975864,1,j,0,same,0.503441825736445,0.17580775055476494,0,0,0,0.38742461885158264,0,0,6.1575731391985755
11,26,female,36,75,75,right,same,valid,anti,3,0.56946066837736,1,j,1,same,0.5265040788090118,0.1755773233403966,0,0,0,0.3874643902072421,0,0,4.009917179364493
11,26,female,37,165,215,right,change,valid,clock,1,0.4174086910661572,0,j,0,same,0.6955913454967231,0.17534957794782396,0,0,0,0.3874384105311037,0,0,4.047469675946559
11,26,female,38,105,155,right,change,valid,clock,3,0.32146190513776673,1,j,0,same,0.4862301311623014,0.17602672211803222,0,0,0,0.38749486019514734,0,0,3.7416722314483195
11,26,female,39,15,15,left,same,valid,clock,3,0.3934288102409482,1,f,0,change,0.6368756779556861,0.17579619790263834,0,0,0,0.38754264996532584,0,0,4.124476317121662
11,26,female,40,45,355,right,change,valid,anti,3,0.32151194006655714,1,j,0,same,0.4074392316179001,0.17556882328109613,0,0,0,0.3874926150365354,0,0,3.8689226004553348
11,26,female,41,135,85,left,change,valid,anti,1,0.5533195929710928,0,f,1,change,2.3848802144584624,0.17534407025189985,0,0,0,0.3875705540613126,0,0,5.951182267621334
11,26,female,42,135,135,right,same,valid,clock,1,0.2734011114171153,0,f,0,change,2.9523731630615657,0.17601237745894088,0,0,0,0.38744001421400753,0,0,6.070172703894059
11,26,female,43,105,105,right,same,valid,anti,4,1.6414497043133451,1,j,1,same,0.43945805757903145,0.1766951664590607,0,0,0,0.38742526032729074,0,0,5.392810429844758
11,26,female,44,15,65,left,change,valid,clock,1,0.3454401822818909,0,f,1,change,1.1596204016768752,0.17645845356404793,0,0,0,0.38747882335701433,0,0,4.58562579903446
11,26,female,45,15,15,right,same,valid,anti,3,0.3934467714971106,1,j,1,same,0.6447183322197816,0.17715509550616082,0,0,0,0.38735405677471135,0,0,4.021827095966728
11,26,female,46,45,355,left,change,valid,anti,3,0.48950453233010194,1,f,1,change,1.0903900222656375,0.1769107941735496,0,0,0,0.3874733708344138,0,0,4.499810444600371
11,26,female,47,135,45,left,same,catch,clock,1,0.28146314959667507,0,j,1,same,0.5245126245172287,0,0,0,0,0.38746888051900896,0,0,5.4407390800370194
11,26,female,48,165,115,right,change,valid,anti,2,0.3357658006116253,1,f,1,change,1.444582468146109,0.17667217817645553,0,0,0,0.3874977468258294,0,0,4.776238669173836
11,26,female,49,15,65,right,change,valid,clock,2,0.45741706871012866,1,f,1,change,1.4801775085306872,0.1764386555574486,0,0,0,0.3875067274530011,0,0,4.832885584872201
11,26,female,50,45,95,right,change,valid,clock,3,0.37740640742231335,1,f,1,change,1.8540452277247823,0.17620965890032586,0,0,0,0.38749550166721747,0,0,5.235822314423785
11,26,female,51,45,45,right,same,valid,anti,1,1.6014310630944237,0,j,1,same,0.5406636427596823,0.17598464276930292,0,0,0,0.38750127492858155,0,0,5.008901085437174
11,26,female,52,15,355,right,change,catch,anti,1,0.29748875978293654,0,j,0,same,0.4196352453727741,0,0,0,0,0.3874871625121159,0,0,5.050880069484265
11,26,female,53,75,15,right,same,catch,anti,1,0.29632833433061023,0,j,1,same,0.757365879129793,0,0,0,0,0.3874499570538319,0,0,5.550168675439636
11,26,female,54,75,75,left,same,valid,clock,1,0.4720519644797605,0,f,0,change,1.2241388379443379,0.1766496980526277,0,0,0,0.38752789607679006,0,0,4.724901229128591
11,26,female,55,15,15,left,same,valid,anti,4,0.8014039929148566,1,j,1,same,0.8886912081579794,0.1773412982489158,0,0,0,0.3874897284058534,0,0,4.764708504846567
11,26,female,56,135,135,left,same,valid,anti,2,1.1214277146027598,1,f,0,change,1.4995144046079076,0.17709760518169027,0,0,0,0.3874983882978995,0,0,5.796464647435641
11,26,female,57,165,115,left,change,valid,anti,3,0.5134815265282668,1,f,1,change,1.30813721886625,0.17685993870865924,0,0,0,0.38747048420373176,0,0,5.320678986805433
11,26,female,58,135,135,left,same,valid,clock,1,0.3374762895382446,0,f,0,change,0.4510905369188549,0.1766277090970617,0,0,0,0.38747048420373176,0,0,3.9517262370973185
11,26,female,1,165,115,left,change,catch,anti,2,0.39221867059677606,1,j,0,same,2.546610743012934,0,0,0,0,0.3875455365960079,0,0,7.395429565896848
11,26,female,2,135,135,left,same,valid,anti,1,0.35156336699219537,0,f,0,change,0.5532426161589683,0.1773101607938336,0,0,0,0.38743648611125536,0,0,4.144831552281175
11,26,female,3,165,215,right,change,valid,clock,2,0.6493735049662064,1,f,1,change,0.6949040067083843,0.17803163692296708,0,0,0,0.3875253301812336,0,0,4.369700707737138
11,26,female,4,45,45,left,same,valid,anti,4,1.689465594892681,1,j,1,same,0.7983852189136087,0.17777358534178972,0,0,0,0.38750865187284944,0,0,5.440401023533923
11,26,female,5,165,165,left,same,valid,anti,4,0.31345824104028,1,j,1,same,0.8475705155706237,0.1775231566375558,0,0,0,0.38750287861148536,0,0,3.9463818011408875
11,26,female,6,15,355,right,change,catch,anti,3,0.48936437038355507,1,j,0,same,1.9890869331229624,0,0,0,0,0.3874393727401184,0,0,7.234973965800236
11,26,female,7,45,135,right,change,catch,anti,1,0.2883435937001195,0,j,0,same,1.0727251267071551,0,0,0,0,0.3874621450486302,0,0,6.049519825057359
11,26,female,8,75,25,left,change,valid,anti,1,0.24017407023166015,0,j,0,same,1.8267665697403572,0.1772797011993109,0,0,0,0.38744803263216454,0,0,5.336182116874625
11,26,female,9,105,15,right,same,catch,clock,3,1.9295264450629475,1,j,1,same,1.0124147561982682,0,0,0,0,0.3874785026200698,0,0,7.468678134928268
11,26,female,10,135,135,left,same,valid,clock,3,0.5440798095605714,1,j,1,same,0.7956794839483337,0.17799139759391513,0,0,0,0.3874910113536316,0,0,4.317829241053914
11,26,female,11,75,75,left,same,valid,clock,2,0.5694625927972083,1,j,1,same,1.215111061505013,0.17773698713708586,0,0,0,0.3874708049406763,0,0,4.7549552219461475
11,26,female,12,75,125,left,change,valid,clock,3,1.1533750162780052,1,f,1,change,2.3760368616294727,0.17749003153238402,0,0,0,0.3874361653743108,0,0,6.619434015154184
11,26,female,13,45,45,left,same,valid,clock,3,0.37742565162625397,1,f,0,change,1.269643680749141,0.17724989708564126,0,0,0,0.387463748733353,0,0,4.987652277775851
11,26,female,14,165,215,left,change,valid,clock,3,0.5930717019764415,1,f,1,change,1.7197373679446173,0.17701598098037724,0,0,0,0.3874781818849442,0,0,5.298293488211129
11,26,female,15,75,15,right,same,catch,anti,1,0.31335817118451814,0,f,0,change,0.3876164194098237,0,0,0,0,0.38747144641456543,0,0,5.113175479549682
11,26,female,16,45,355,right,change,valid,anti,2,0.8641830739525176,1,f,1,change,1.2401112058360013,0.17678770846112724,0,0,0,0.38748908693378326,0,0,5.21046903896422
11,26,female,17,45,95,left,change,valid,clock,2,0.5209890109181288,1,f,1,change,1.0000712035507604,0.1765645302145507,0,0,0,0.3875041615592636,0,0,4.8221915811736835
11,26,female,18,45,355,left,same,catch,clock,1,0.22549427132253186,0,j,1,same,0.6507860294786951,0,0,0,0,0.3874727293605247,0,0,5.737443638539844
11,26,female,19,135,85,left,change,valid,anti,2,0.9758793157525361,1,f,1,change,1.3266812537731312,0.1763459199288816,0,0,0,0.3874339202175179,0,0,5.290737251836617
11,26,female,20,165,165,right,same,valid,clock,2,0.7614145387397002,1,f,0,change,1.7916568040127459,0.17613137201397489,0,0,0,0.3874775404128741,0,0,5.760705389853683
11,26,female,21,135,135,right,same,valid,clock,2,0.4894336495162861,1,f,0,change,0.8006736754050507,0.1759203994657184,0,0,0,0.3875580453295697,0,0,4.251072383221981
11,26,female,22,15,165,left,same,catch,anti,1,0.40145941622176906,0,f,0,change,0.35748192167375237,0,0,0,0,0.38747721967411053,0,0,5.362980631991377
11,26,female,23,165,165,left,same,valid,clock,2,0.7119662379700458,1,j,1,same,1.0249279785693943,0.17571253185992863,0,0,0,0.3874611828396155,0,0,4.9509882219063
11,26,female,24,15,65,right,change,valid,clock,3,0.3294729461777024,1,j,0,same,1.3659192218146927,0.17550731346205678,0,0,0,0.3874589376828226,0,0,4.932055774832406
11,26,female,25,105,105,right,same,valid,clock,1,0.27333439817994076,0,j,1,same,4.66784922295119,0.17530430144010462,0,0,0,0.3875355937580025,0,0,7.976716759327246
11,26,female,26,105,105,left,same,valid,anti,3,0.37743944330395607,1,j,1,same,1.929454600038298,0.17590835013571698,0,0,0,0.3874409764248412,0,0,5.388617759448607
11,26,female,27,15,15,right,same,valid,anti,3,0.5374479364127183,1,j,1,same,0.6962456484052382,0.1757030524453807,0,0,0,0.3874400142158265,0,0,4.021555111228736
11,26,female,28,105,105,right,same,valid,anti,1,0.25744349741580663,0,j,1,same,0.49777697379795427,0.17550035011962256,0,0,0,0.3874733708325948,0,0,3.963029640563036
11,26,female,29,135,135,right,same,valid,anti,1,0.4696425902457122,0,j,1,same,1.9967942364892224,0.17610230779602415,0,0,0,0.3875397633346438,0,0,5.599253260770638
11,26,female,30,105,105,left,same,valid,clock,1,0.2734466560305009,0,j,1,same,0.5243830468843953,0.17671993249107637,0,0,0,0.38741627969830006,0,0,3.4699860992714093
11,26,female,31,15,65,left,change,valid,clock,2,1.1054662517617544,1,f,1,change,0.3713749534144881,0.17736440844060697,0,0,0,0.38744322158163413,0,0,4.7175274919482035
11,26,female,32,75,125,right,change,valid,clock,2,0.48948176002340915,1,j,0,same,0.4682079348986008,0.17713682054613267,0,0,0,0.3874659938901459,0,0,4.156957324696123
11,26,female,33,105,155,right,change,valid,clock,2,0.40147096274267824,1,j,0,same,0.6180978259835683,0.1769149451002731,0,0,0,0.3875323863903759,0,0,3.870215169434232
11,26,female,34,45,45,right,same,valid,clock,1,0.4254938222893543,0,j,1,same,0.550349570950857,0.17669825813641832,0,0,0,0.3875509891204274,0,0,4.1523958070738445
11,26,female,35,75,75,right,same,valid,anti,1,0.5694257080740499,0,j,1,same,0.41938635368023824,0.17733461344683626,0,0,0,0.38749486019514734,0,0,4.081697415695089
11,26,female,36,135,185,right,change,valid,clock,3,0.641449062839456,1,f,1,change,1.2686519628114183,0.17800885931750626,0,0,0,0.38757985542360984,0,0,4.640768459521496
11,26,female,37,15,15,right,same,valid,clock,4,0.5134584334828105,1,j,1,same,1.2184165741346078,0.17776743902903624,0,0,0,0.3874461082123162,0,0,4.742288045950772
11,26,female,38,15,25,right,same,catch,anti,1,0.2894299289691844,0,f,0,change,0.30588276046546525,0,0,0,0,0.3874945394563838,0,0,5.081929308344115
11,26,female,39,105,55,left,change,valid,anti,1,0.23235033943456074,0,f,1,change,2.140244696458467,0.17753315248126977,0,0,0,0.3874435423185787,0,0,5.567526625958635
11,26,female,40,135,85,right,change,valid,anti,1,0.2813842483628832,0,f,1,change,0.42868130380702496,0.1782167237329252,0,0,0,0.3874287884300429,0,0,3.468737471221175
11,26,female,41,15,325,left,change,valid,anti,2,0.4094643632633961,1,j,0,same,0.492064332089285,0.17895441913394372,0,0,0,0.3874862003012822,0,0,3.9485323408443946
11,26,female,42,75,75,right,same,valid,clock,3,0.4814594931976899,1,j,1,same,0.5144690748857101,0.17868590396324668,0,0,0,0.3875657430089632,0,0,3.896551182204348
11,26,female,43,105,55,right,change,valid,anti,3,0.3294437591375754,1,j,0,same,0.4963291682452109,0.17842675014607068,0,0,0,0.387525009446108,0,0,3.827177433478937
11,26,female,44,15,15,left,same,valid,clock,2,0.26543465278155054,1,j,1,same,1.5384130332004133,0.17817627613564124,0,0,0,0.38746567315138236,0,0,4.700033869796243
11,26,female,45,165,115,left,change,valid,anti,2,1.32141283241981,1,f,1,change,0.7420712279272266,0.17793383735470347,0,0,0,0.38748267219853005,0,0,4.675115834066673
11,26,female,46,165,115,right,change,valid,anti,2,0.20143003673729254,1,j,0,same,0.6912460044222826,0.1776988231382971,0,0,0,0.38749902976996964,0,0,3.8414668958012044
11,26,female,47,45,45,right,same,valid,anti,1,0.2093724401183863,0,j,1,same,0.665070039278362,0.17747065390377487,0,0,0,0.38743424095446244,0,0,4.098644823214272
11,26,female,48,45,355,left,change,valid,anti,3,0.24943566374167858,1,j,0,same,0.556294426043678,0.1781366514656117,0,0,0,0.38752565091999713,0,0,4.12210831792072
11,26,female,49,165,165,right,same,valid,anti,4,0.529438819792631,1,j,1,same,0.8777678777041729,0.1778974601630831,0,0,0,0.38747208788663556,0,0,4.46662958950219
11,26,female,50,15,15,left,same,valid,anti,1,0.30546067094292084,0,f,0,change,1.1336028804726084,0.17766554249345495,0,0,0,0.3874740123083029,0,0,4.667915294714476
11,26,female,51,105,155,left,change,valid,clock,3,0.20144511136277288,1,j,0,same,0.509490278791418,0.17834155055630851,0,0,0,0.38754906469876005,0,0,3.8341306848178647
11,26,female,52,75,75,left,same,valid,anti,3,0.21751786984714272,1,j,1,same,0.6210280766499636,0.17809782416173653,0,0,0,0.3874643902054231,0,0,3.9549512448120367
11,26,female,53,105,15,left,same,catch,anti,1,0.24948120835506415,0,j,1,same,0.34650887702991895,0,0,0,0,0.3874967846149957,0,0,5.207107076670582
11,26,female,54,75,25,right,change,valid,anti,3,0.21606749840248085,1,j,0,same,0.5381612548771955,0.1778618078020498,0,0,0,0.3874945394582028,0,0,3.8512926652001624
11,26,female,55,15,325,right,change,valid,anti,3,0.31350538933838834,1,j,0,same,0.37748081833888136,0.17763291883165128,0,0,0,0.3874291091669875,0,0,3.7564893056751316
11,26,female,56,135,45,left,same,catch,clock,1,0.2574576098304533,0,j,1,same,1.4425425826102583,0,0,0,0,0.38751089702964236,0,0,6.330084591101695
11,26,female,57,135,185,left,change,valid,clock,3,0.24004545480784145,1,j,0,same,0.21308881648656097,0.17741060375642786,0,0,0,0.38745444736741774,0,0,3.820607462517728
11,26,female,58,45,95,right,change,valid,clock,3,1.1934603707341012,1,j,0,same,0.7927052923478186,0.17719433579059712,0,0,0,0.38751185924047604,0,0,4.9574295774418715
