subject,age,gender,ntrial,memory_ori,test_ori,cue,type,trial_type,which_change,pas,pas_rt,vis,test_key,test_acc,test,test_rt,contrast,fix_dur,cue_dur,jitter_dur,target_dur,mask_dur,retention_dur,trial_dur
12,28,male,1,15,15,right,same,valid,clock,2,1.4164137657635365,1,f,1,same,2.5562046197637756,0.5,0,0,0,0.387453164420549,0,0,7.040357339194088
12,28,male,2,15,15,left,same,valid,anti,3,2.945409968882359,1,f,1,same,1.275402829282939,0.4069419370673367,0,0,0,0.3874480326326193,0,0,7.243368928694508
12,28,male,3,45,135,left,same,catch,clock,1,0.6574772389185455,0,f,1,same,1.7540340660884794,0,0,0,0,0.38742205295875465,0,0,7.110325413060764
12,28,male,4,15,325,right,change,valid,anti,1,2.104160853313715,0,f,0,same,4.829839227511911,0.3461892688284379,0,0,0,0.3875224435519158,0,0,10.359745360703982
12,28,male,5,45,105,right,change,catch,clock,1,1.8492210267295377,0,f,0,same,1.4261785951857746,0,0,0,0,0.38748427588234335,0,0,7.873528059010823
12,28,male,6,15,325,left,change,valid,anti,1,4.584143995391514,0,j,1,change,3.880294962316384,0.4454881356006881,0,0,0,0.3873566226679941,0,0,11.353649117877467
12,28,male,7,165,165,left,same,valid,anti,3,2.8332717518833306,1,f,1,same,1.0503123654912088,0.5153337022544097,0,0,0,0.3873979977047384,0,0,7.010767131670491
12,28,male,8,135,85,right,change,valid,anti,2,0.7693973549485236,1,f,0,same,1.5004859161299464,0.4924441645522087,0,0,0,0.3873649618226409,0,0,5.5733066223792775
12,28,male,9,165,165,right,same,valid,anti,1,0.5132823490248484,0,j,0,change,3.869174699517771,0.4734385059312398,0,0,0,0.38745476810390755,0,0,7.498975246181544
12,28,male,10,45,45,left,same,valid,clock,3,3.6894530861604835,1,f,1,same,0.8970294006521726,0.5125887942849259,0,0,0,0.38734892498678164,0,0,7.60164820185355
12,28,male,11,135,135,right,same,valid,anti,2,3.3374265753463987,1,f,1,same,1.1651409220926325,0.498328181754836,0,0,0,0.38745220221017007,0,0,7.619225536288013
12,28,male,12,45,45,right,same,valid,clock,1,0.5213668387741563,0,f,1,same,2.7137270825596715,0.4863716772553254,0,0,0,0.38738580970948533,0,0,6.84480704799671
12,28,male,13,105,95,right,same,catch,clock,1,0.4093918767653122,0,f,1,same,1.0848820105829873,0,0,0,0,0.3874271847462296,0,0,6.064750649652069
12,28,male,14,135,135,right,same,valid,clock,1,0.3363517865996073,0,f,1,same,2.8778791733457183,0.5150318966985642,0,0,0,0.3874124308572391,0,0,6.773341775123754
12,28,male,15,75,25,right,change,valid,anti,1,0.5854484316291746,0,f,0,same,1.113620020642884,0.5421390576295121,0,0,0,0.38737522539759084,0,0,4.86569310242885
12,28,male,16,15,15,right,same,valid,anti,1,0.44944964786327546,0,f,1,same,1.1698801278585051,0.5668793012784583,0,0,0,0.3874557303142865,0,0,4.957218853417544
12,28,male,17,75,45,right,change,catch,anti,1,0.5610750068476591,0,f,0,same,1.7623639194280258,0,0,0,0,0.3873781120282729,0,0,6.923074825951971
12,28,male,18,15,65,right,change,valid,clock,1,0.49629966046813934,0,f,0,same,1.418181987297885,0.5917747121521939,0,0,0,0.3874509192637561,0,0,5.346662189182098
12,28,male,19,15,15,left,same,valid,clock,3,1.313420073371617,1,f,1,same,1.2682773423243816,0.6152924134636664,0,0,0,0.387401205072365,0,0,5.594447021029282
12,28,male,20,135,135,left,same,valid,clock,3,1.785471075641908,1,f,1,same,0.8773605420710737,0.6068195691206445,0,0,0,0.3873816401323893,0,0,6.048510787337818
12,28,male,21,105,105,left,same,valid,clock,2,4.2894254386555986,1,f,1,same,1.1687405502943875,0.5991387959156671,0,0,0,0.3873437931988519,0,0,8.298096555864959
12,28,male,22,105,155,right,change,valid,clock,2,1.3453834118818122,1,j,1,change,1.5922583136562025,0.5920868746263691,0,0,0,0.38738003644812125,0,0,5.637665331760218
12,28,male,23,165,215,right,change,valid,clock,3,4.497393693418417,1,j,1,change,1.3520287559713324,0.5854701521396714,0,0,0,0.3874230151691336,0,0,9.10875508608251
12,28,male,24,135,135,left,same,valid,anti,3,4.2974274990683625,1,f,1,same,1.0627627234653119,0.5795947790557504,0,0,0,0.3875243679722189,0,0,8.325409532680169
12,28,male,25,165,215,left,change,valid,clock,3,2.40940919654804,1,j,1,change,1.1404047440810245,0.5740034853904206,0,0,0,0.38744546673933655,0,0,6.265246701062097
12,28,male,26,45,355,left,change,valid,anti,3,1.2893763659376418,1,j,1,change,1.3113182856495769,0.5685709925443276,0,0,0,0.3874797855687575,0,0,5.432292478531963
12,28,male,27,105,105,right,same,valid,anti,3,0.7294409366541004,1,f,1,same,1.1664960347325177,0.5636729831008629,0,0,0,0.3874435423185787,0,0,5.12239184918235
12,28,male,28,135,355,right,change,catch,clock,2,2.273408488361383,1,f,0,same,1.4838185117687317,0,0,0,0,0.38743263727064914,0,0,8.404236996210784
12,28,male,29,45,45,left,same,valid,anti,3,1.3444561620253808,1,f,1,same,0.8033652979547696,0.5588349291535131,0,0,0,0.38736207519195887,0,0,5.458428030849973
12,28,male,30,45,45,right,same,valid,anti,3,2.0094209996595964,1,f,1,same,0.9308940664350303,0.554422794200992,0,0,0,0.38743969347797247,0,0,5.78112381014671
12,28,male,31,105,165,left,change,catch,anti,2,1.0014077134619583,1,f,0,same,1.412352276684942,0,0,0,0,0.3874121101198398,0,0,7.468888217479616
12,28,male,32,135,85,left,change,valid,anti,3,0.8723660298765026,1,j,1,change,1.0414901812864628,0.5500303418680393,0,0,0,0.387397356231304,0,0,5.006003229177622
12,28,male,33,15,65,left,change,valid,clock,2,1.1852767733371365,1,j,1,change,1.4765089219336005,0.5459565497086545,0,0,0,0.387437127584235,0,0,5.996352261290667
12,28,male,34,75,75,right,same,valid,anti,3,1.0734602552674914,1,f,1,same,1.404582108921204,0.542176118834552,0,0,0,0.3874685597829739,0,0,5.868563696067213
12,28,male,35,45,95,right,change,valid,clock,3,1.5852909498998997,1,j,1,change,1.963481558600506,0.5383344878954537,0,0,0,0.38744707042314985,0,0,7.074661093545728
12,28,male,36,165,115,right,change,valid,anti,3,0.7854816599538026,1,j,1,change,0.985047895614116,0.5347740605142535,0,0,0,0.3874166004343351,0,0,4.742757604506551
12,28,male,37,75,75,left,same,valid,clock,3,3.5853964722809906,1,f,1,same,1.3699701265823023,0.5311798940081133,0,0,0,0.3874781818849442,0,0,8.031087406528968
12,28,male,38,75,125,left,change,valid,clock,3,5.521384479294284,1,j,1,change,1.4229288907445152,0.5277379570908908,0,0,0,0.38738869634016737,0,0,10.348135332934362
12,28,male,39,105,155,left,change,valid,clock,3,1.3690666112433973,1,j,1,change,1.4878395880205062,0.5245296106309422,0,0,0,0.3873813193958995,0,0,5.9157495200179255
12,28,male,40,165,165,right,same,valid,clock,4,1.489430121411715,1,f,1,same,0.8583751734386169,0.521261485559397,0,0,0,0.38743424095446244,0,0,5.618268778653146
12,28,male,41,75,125,right,change,valid,clock,2,0.8254268524633517,1,j,1,change,1.1516744701912103,0.5180995343979165,0,0,0,0.3874319957976695,0,0,4.705070719239302
12,28,male,42,105,105,left,same,valid,anti,4,1.5053851695192861,1,f,1,same,0.9194270872421839,0.5151347347087357,0,0,0,0.3874595791548927,0,0,5.680107780366598
12,28,male,43,165,45,left,change,catch,anti,1,0.5694433485941772,0,f,0,same,1.5462284248433207,0,0,0,0,0.3873797157120862,0,0,6.267618228365791
12,28,male,44,75,75,left,same,valid,anti,2,0.6964531650619392,1,f,1,same,0.9805777879555535,0.5123078356807871,0,0,0,0.3874570132611552,0,0,5.15182232981897
12,28,male,45,105,55,right,change,valid,anti,3,0.9694190367508781,1,j,1,change,0.9711259975711073,0.5093557806867273,0,0,0,0.3874387312680483,0,0,5.042738488598843
12,28,male,46,135,185,left,change,valid,clock,4,1.8574520931606457,1,j,1,change,1.4697240573714225,0.506542231382911,0,0,0,0.3873851682365057,0,0,6.298752141718978
12,28,male,47,15,165,left,change,catch,clock,1,1.2494324563749615,0,f,0,same,1.3364682140290824,0,0,0,0,0.38743263727064914,0,0,7.328473530560586
12,28,male,48,165,165,left,same,valid,clock,3,0.9442136209181626,1,f,1,same,0.8395421547475053,0.5038753027007727,0,0,0,0.38743424095446244,0,0,4.789190338639855
12,28,male,49,105,105,right,same,valid,clock,4,0.8495404805025828,1,f,1,same,1.0612802783489315,0.5011117265479885,0,0,0,0.3873505286701402,0,0,4.902580391054471
12,28,male,50,165,115,left,change,valid,anti,3,0.9460838367294855,1,j,1,change,1.0014898220615578,0.49839296042551146,0,0,0,0.38739286591771815,0,0,5.1712012424050045
12,28,male,51,135,185,right,change,valid,clock,2,1.177349123843669,1,f,0,same,1.1868515906298853,0.4958148420076239,0,0,0,0.3874153174874664,0,0,5.637031556002512
12,28,male,52,45,95,left,change,valid,clock,4,0.8093929031228981,1,j,1,change,1.6396725021504608,0.49334573509059415,0,0,0,0.3874127515937289,0,0,5.9410447421305435
12,28,male,53,75,25,left,change,valid,anti,4,0.7854627364868065,1,j,1,change,0.9180017332610078,0.49076306172448836,0,0,0,0.38739767696824856,0,0,4.828450437516949
12,28,male,54,45,15,right,same,catch,clock,1,0.7854200785031935,0,j,0,change,1.148032504742332,0,0,0,0,0.38743488242744206,0,0,6.4390462316323465
12,28,male,55,45,355,right,change,valid,anti,4,1.0164358324491332,1,j,1,change,1.0361582540635936,0.48820678237233905,0,0,0,0.38743263726973964,0,0,5.593653839122453
12,28,male,56,105,55,left,change,valid,anti,4,0.865096852867282,1,j,1,change,0.8229324829953839,0.485775140408643,0,0,0,0.3874198078019617,0,0,5.096285804641411
12,28,male,57,75,355,left,same,catch,clock,1,0.465450240584687,0,f,1,same,0.8085522521805615,0,0,0,0,0.3874759367281513,0,0,5.90889152748332
12,28,male,58,75,75,right,same,valid,clock,3,2.0235029453251627,1,f,1,same,1.0887151351162174,0.4834359263785821,0,0,0,0.3874547681043623,0,0,6.231616814558038
12,28,male,1,75,125,left,change,valid,clock,3,2.8883085692514214,1,j,1,change,1.235249157905855,0.4809804775713461,0,0,0,0.3874554095773419,0,0,7.392920442539435
12,28,male,2,45,45,left,same,valid,clock,2,0.8574921852496118,1,f,1,same,1.077348546516987,0.4785275349005985,0,0,0,0.38743648611034587,0,0,5.01493125649904
12,28,male,3,75,75,left,same,valid,clock,3,0.817086414811456,1,f,1,same,1.0790885432197683,0.4761759568442842,0,0,0,0.38749229430050036,0,0,5.1659684228288825
12,28,male,4,105,55,left,change,valid,anti,2,0.7772384055278962,1,j,1,change,1.9004481333440708,0.47391227545098014,0,0,0,0.38752244355237053,0,0,5.953434160128381
12,28,male,5,75,75,right,same,valid,anti,2,0.617484898110888,1,f,1,same,1.042339492119936,0.47153648490579037,0,0,0,0.3875115385035315,0,0,4.736718773554458
12,28,male,6,75,25,left,change,valid,anti,2,1.0413824137494885,1,j,1,change,2.8546722680121093,0.46914938840178705,0,0,0,0.3874961431411066,0,0,7.263883249268474
12,28,male,7,105,95,right,same,catch,clock,1,0.40144819043598545,0,j,0,change,0.9754780741177456,0,0,0,0,0.38745989989183727,0,0,5.830792777778697
12,28,male,8,165,215,left,change,valid,clock,3,0.9682265376277428,1,j,1,change,0.9470601593038737,0.46682048132278964,0,0,0,0.38737362171468703,0,0,5.021870074686376
12,28,male,9,15,65,right,change,valid,clock,3,2.1694035130931297,1,j,1,change,1.300023542074996,0.46458196094862225,0,0,0,0.38750384082231903,0,0,6.381063126759727
12,28,male,10,75,75,right,same,valid,clock,4,1.1534423709890689,1,f,1,same,0.9401162093281528,0.46223751170544347,0,0,0,0.38745829620802397,0,0,4.910686690901457
12,28,male,11,45,45,right,same,valid,anti,4,0.5934136073192349,1,f,1,same,0.8516191751805309,0.45989378521491653,0,0,0,0.3874255810624163,0,0,4.243879220814961
12,28,male,12,165,165,right,same,valid,clock,4,0.8894564859701859,1,f,1,same,0.7590080511336055,0.4575349140754736,0,0,0,0.3875128214504002,0,0,4.559640992974892
12,28,male,13,45,45,right,same,valid,clock,4,0.6894806695190709,1,f,1,same,0.6939286463430108,0.4552726456790647,0,0,0,0.38748363440845424,0,0,4.138950203058812
12,28,male,14,75,75,left,same,valid,anti,2,0.641433026003142,1,f,1,same,0.8260805138970682,0.4530655298071513,0,0,0,0.38745765473413485,0,0,4.507946252223519
12,28,male,15,165,165,right,same,valid,anti,1,0.5372833984747558,0,f,1,same,0.6693688735276737,0.4507158057920143,0,0,0,0.38743744832117955,0,0,4.238256706124048
12,28,male,16,45,95,left,change,valid,clock,3,0.7934798715250508,1,j,1,change,1.08066560566931,0.4569091547778533,0,0,0,0.3874403349518616,0,0,4.897026834758435
12,28,male,17,45,15,right,same,catch,clock,1,0.49731222629088734,0,j,0,change,3.2585622270935346,0,0,0,0,0.38750223713941523,0,0,8.46649872891976
12,28,male,18,165,45,left,change,catch,anti,2,1.2156976889637008,1,j,1,change,4.031199664381347,0,0,0,0,0.3874419386356749,0,0,10.385836009881132
12,28,male,19,15,165,left,change,catch,clock,2,0.7525227546666429,1,f,0,same,1.0577791163186703,0,0,0,0,0.38747882335792383,0,0,6.470332174190844
12,28,male,20,15,15,right,same,valid,anti,3,0.6884902345291266,1,f,1,same,0.7370440005879573,0.4548639701079966,0,0,0,0.38741403454059764,0,0,5.01879453028414
12,28,male,21,75,45,right,change,catch,anti,1,0.449381972415722,0,j,1,change,1.8383538252019207,0,0,0,0,0.3874862003031012,0,0,6.829333746441989
12,28,male,22,105,105,right,same,valid,clock,4,0.6724668695005676,1,f,1,same,0.9249011008323578,0.45272026033942053,0,0,0,0.38750544450522284,0,0,5.039636964522288
12,28,male,23,45,135,left,same,catch,clock,1,1.156570836949868,0,f,1,same,0.994897078793656,0,0,0,0,0.3875031993493394,0,0,6.6261329222770655
12,28,male,24,15,65,left,change,valid,clock,4,0.824516922390103,1,j,1,change,1.1277202483015571,0.45058190830095907,0,0,0,0.3874239773795125,0,0,4.671927711075114
12,28,male,25,105,105,right,same,valid,anti,4,0.8254422478257766,1,f,1,same,0.8055617030095163,0.44839982187544286,0,0,0,0.3874425801086545,0,0,4.870246280896936
12,28,male,26,105,55,right,change,valid,anti,2,0.7693736204309971,1,j,1,change,0.9720247018594819,0.44628874563073484,0,0,0,0.38742365664256795,0,0,4.7140776477936015
12,28,male,27,45,95,right,change,valid,clock,3,2.60945589581479,1,j,1,change,0.7292552300932584,0.4442398577217753,0,0,0,0.3874881247229496,0,0,6.26550232822774
12,28,male,28,15,325,right,change,valid,anti,3,1.9054448906954349,1,j,1,change,0.9666530032827723,0.442075413704979,0,0,0,0.38741627969739056,0,0,5.913037691055251
12,28,male,29,75,355,left,same,catch,clock,2,0.5774765204687355,1,j,0,change,2.0476377419872733,0,0,0,0,0.38746567315320135,0,0,7.1249795530338815
12,28,male,30,135,135,right,same,valid,anti,2,1.128232464841858,1,j,0,change,1.1516318122066878,0.439896415602897,0,0,0,0.38744546673933655,0,0,5.603449780007395
12,28,male,31,165,165,left,same,valid,clock,4,3.5613575758980005,1,f,1,same,2.4064366086331574,0.43767320905818907,0,0,0,0.38753783891479543,0,0,9.602394556200124
12,28,male,32,135,135,right,same,valid,clock,3,1.0653478614240157,1,f,1,same,2.8231569986992326,0.43553363323502275,0,0,0,0.3874557303142865,0,0,7.182941810019656
12,28,male,33,135,185,right,change,valid,clock,4,2.9054737570004363,1,j,1,change,1.2068235454107707,0.43344166306599047,0,0,0,0.38752468870825396,0,0,7.246177940883172
12,28,male,34,135,355,right,change,catch,clock,2,1.4814428148883962,1,f,0,same,1.1230695658705372,0,0,0,0,0.38749165282661124,0,0,7.344046901972433
12,28,male,35,135,135,left,same,valid,clock,3,0.8244595105170447,1,f,1,same,1.1755408102189904,0.4312126230266042,0,0,0,0.38754425364822964,0,0,4.881957019996662
12,28,male,36,45,45,left,same,valid,anti,4,2.689440256692251,1,f,1,same,0.9223692051691614,0.42892339971340354,0,0,0,0.3874303921129467,0,0,6.837206229220101
12,28,male,37,165,115,left,change,valid,anti,3,0.7294123910860435,1,j,1,change,1.1430004663507134,0.42665696345891846,0,0,0,0.38743488242744206,0,0,5.115316717888163
12,28,male,38,45,355,left,change,valid,anti,4,1.3933758886814758,1,j,1,change,0.9327129643697845,0.42445677736855425,0,0,0,0.3874239773795125,0,0,5.661289194828896
12,28,male,39,165,115,right,change,valid,anti,3,0.8894019607278096,1,j,1,change,1.3824551241223162,0.42212929527126747,0,0,0,0.38742044927585084,0,0,5.261058200244406
12,28,male,40,15,325,left,change,valid,anti,3,0.6254170379197603,1,j,1,change,0.8605754273330604,0.4197753172066638,0,0,0,0.38753206565343135,0,0,4.850781090132841
12,28,male,41,105,105,left,same,valid,anti,3,0.7534269114785275,1,f,1,same,0.8873896585500916,0.4173615301452035,0,0,0,0.38749550166721747,0,0,4.669992706447374
12,28,male,42,45,105,right,change,catch,clock,1,0.46548616309701174,0,j,1,change,1.033475612141956,0,0,0,0,0.38742846769309836,0,0,6.111764237984062
12,28,male,43,105,155,right,change,valid,clock,2,0.5523192151440526,1,j,1,change,1.5510949630870527,0.41502861806566993,0,0,0,0.38754104628151254,0,0,5.567841910154129
12,28,male,44,165,215,right,change,valid,clock,4,0.6254010010834463,1,j,1,change,0.9210156962135443,0.4127352527989368,0,0,0,0.3874791440948684,0,0,4.477101001916708
12,28,male,45,45,355,right,change,valid,anti,1,0.32138236243099527,0,j,1,change,1.0004576912979246,0.41027257400569694,0,0,0,0.38748267219853005,0,0,4.374710615294134
12,28,male,46,165,165,left,same,valid,anti,3,1.217433836825876,1,f,1,same,1.0554419078453066,0.41681702445387236,0,0,0,0.3874477118961295,0,0,5.4294257337332965
12,28,male,47,15,15,left,same,valid,anti,2,0.5134314915985669,1,f,1,same,0.7997364827115234,0.4147099386513625,0,0,0,0.3874493155799428,0,0,4.823785642669463
12,28,male,48,105,155,left,change,valid,clock,3,2.7772900441395905,1,j,1,change,3.670432757226081,0.41248687625555985,0,0,0,0.38740024286107655,0,0,9.529967393905281
12,28,male,49,135,85,right,change,valid,anti,3,0.7453709672972764,1,j,1,change,2.7149150913683116,0.4102556681033367,0,0,0,0.38744642894926073,0,0,6.236779072057288
12,28,male,50,135,135,left,same,valid,anti,3,1.233294909074175,1,f,1,same,4.825564127778307,0.4079539321033578,0,0,0,0.3874275054831742,0,0,8.923891100903347
12,28,male,51,75,25,right,change,valid,anti,3,0.9052598256084821,1,f,0,same,3.6409945789082485,0.4057280352978965,0,0,0,0.3874031294926681,0,0,7.855841353354663
12,28,male,52,75,125,right,change,valid,clock,3,2.79334355841911,1,j,1,change,3.419685921774544,0.403553040477739,0,0,0,0.3874961431411066,0,0,9.215559130700967
12,28,male,53,15,15,right,same,valid,clock,2,1.6174194678205822,1,f,1,same,1.1083830314873921,0.401236341614571,0,0,0,0.38745925841885764,0,0,5.802560569525667
12,28,male,54,15,15,left,same,valid,clock,3,1.4254546924103124,1,f,1,same,0.9333441742346622,0.39885808790776467,0,0,0,0.3874692012559535,0,0,5.589835789214703
12,28,male,55,105,105,left,same,valid,clock,4,1.2094057967387926,1,f,1,same,0.7982944504210536,0.3965060817829371,0,0,0,0.38741627969739056,0,0,4.835989354107369
12,28,male,56,135,85,left,change,valid,anti,3,0.6254109439223612,1,j,1,change,1.2376870777097793,0.3942211609828845,0,0,0,0.38741724190731475,0,0,4.790647445556715
12,28,male,57,105,165,left,change,catch,anti,1,0.35339766028937447,0,j,1,change,0.8167185297943433,0,0,0,0,0.3874473911591849,0,0,5.846278588065616
12,28,male,58,135,185,left,change,valid,clock,2,0.6802363957913258,1,j,1,change,0.8673198790693277,0.3918006144280015,0,0,0,0.3875404048085329,0,0,4.4129533372979495
12,28,male,1,105,155,right,change,valid,clock,3,1.1203218143946287,1,j,1,change,0.9609355505217536,0.38933529795634414,0,0,0,0.38749646387805115,0,0,4.808282191863327
12,28,male,2,165,45,left,change,catch,anti,1,0.4574443313313168,0,j,1,change,0.9427767204160773,0,0,0,0,0.3874701634667872,0,0,5.706031646450356
12,28,male,3,45,15,right,same,catch,clock,1,0.3601732234874362,0,j,0,change,0.4530396539639696,0,0,0,0,0.3874913320905762,0,0,5.409520492189586
12,28,male,4,105,55,right,change,valid,anti,3,0.7043567593018452,1,j,1,change,0.9212341179199939,0.3868565195038892,0,0,0,0.38746246578557475,0,0,4.801020391799284
12,28,male,5,165,215,right,change,valid,clock,3,0.8574678092591057,1,j,1,change,0.7110803631512681,0.38445423397888606,0,0,0,0.3874813892516613,0,0,4.514214730667845
12,28,male,6,135,135,right,same,valid,clock,4,4.433383304114614,1,f,1,same,0.986102798684442,0.38191296099967137,0,0,0,0.38741788338211336,0,0,8.28459129482053
12,28,male,7,15,65,left,change,valid,clock,3,0.8573985301272842,1,j,1,change,0.7942371309200098,0.37932511326708235,0,0,0,0.3875404048076234,0,0,4.855955214889946
12,28,male,8,45,95,right,change,valid,clock,3,1.1615496330450696,1,j,1,change,1.0084690530766238,0.3767156707636658,0,0,0,0.387429109166078,0,0,5.178506341927459
12,28,male,9,45,355,right,change,valid,anti,1,0.561485229111895,0,j,1,change,0.3805473821148553,0.37418211150251757,0,0,0,0.3874509192637561,0,0,4.4227043750406665
12,28,male,10,105,165,left,change,catch,anti,2,0.689366807983788,1,f,0,same,2.827779777036085,0,0,0,0,0.3874207700118859,0,0,7.748992726333199
12,28,male,11,15,325,left,change,valid,anti,3,0.6004903422963253,1,j,1,change,1.079495878853777,0.381109951201983,0,0,0,0.387490369880652,0,0,5.011710097625837
12,28,male,12,135,135,left,same,valid,clock,4,0.8254098534171135,1,f,1,same,0.8533232493709875,0.37874179942954844,0,0,0,0.38743584463736624,0,0,4.6988388047811895
12,28,male,13,75,75,right,same,valid,clock,4,0.593528751802296,1,f,1,same,1.0130976046739306,0.37641400032484895,0,0,0,0.3874631072585544,0,0,4.754282637045435
12,28,male,14,105,105,right,same,valid,clock,4,0.9693876045521392,1,f,1,same,0.9017429474806704,0.3741529290875229,0,0,0,0.38744642894926073,0,0,5.018714346104389
12,28,male,15,135,135,left,same,valid,anti,4,0.6654623002850713,1,f,1,same,0.5883709846166312,0.3717581898895309,0,0,0,0.3874871625121159,0,0,4.193815426281617
12,28,male,16,135,85,left,change,valid,anti,4,0.5615035111040925,1,j,1,change,0.6274761676577327,0.369320396665594,0,0,0,0.3874339202166084,0,0,4.1880405616484495
12,28,male,17,75,355,left,same,catch,clock,1,0.36132530978375144,0,j,0,change,2.4484826266543678,0,0,0,0,0.3875487439636345,0,0,7.265890098921773
12,28,male,18,105,55,left,change,valid,anti,2,0.760116517235474,1,j,1,change,1.1179541359324503,0.3668754999119558,0,0,0,0.3875285375497697,0,0,5.023191509971184
12,28,male,19,75,25,left,change,valid,anti,4,0.5134735081092003,1,j,1,change,0.8798642129031577,0.3645070575519894,0,0,0,0.3875227642884056,0,0,4.742589538465836
12,28,male,20,45,105,right,change,catch,clock,1,0.7295086121021086,0,j,1,change,1.1411847757826763,0,0,0,0,0.38748170998860587,0,0,6.5479042742017555
12,28,male,21,15,15,right,same,valid,anti,1,1.0077833179702793,0,f,1,same,1.0865645954127103,0.3620031249997707,0,0,0,0.38744610821322567,0,0,5.676930241687842
12,28,male,22,15,15,left,same,valid,anti,4,1.121415847344906,1,f,1,same,0.4953319977857973,0.3685658255647884,0,0,0,0.3875169910270415,0,0,5.069780122149496
12,28,male,23,165,165,left,same,valid,anti,3,1.633273483861558,1,f,1,same,0.9214567092030848,0.3663697628410102,0,0,0,0.38745284368360444,0,0,5.542935100207615
12,28,male,24,105,105,right,same,valid,anti,1,0.5053377004842332,0,j,0,change,0.7348283513301794,0.36423659163570954,0,0,0,0.38748042704173713,0,0,4.147599510170949
12,28,male,25,75,45,right,change,catch,anti,1,0.4254797098747076,0,j,1,change,0.6251572411765665,0,0,0,0,0.38744803263307404,0,0,5.628024948185157
12,28,male,26,45,45,right,same,valid,clock,3,0.8080916742528643,1,f,1,same,0.8337467629653474,0.37010138952104854,0,0,0,0.38746022062787233,0,0,4.795111779953913
12,28,male,27,15,65,right,change,valid,clock,3,0.7614584796692725,1,j,1,change,0.7610614076111233,0.36802455704826675,0,0,0,0.3874627865216098,0,0,4.4768116973964425
12,28,male,28,165,165,left,same,valid,clock,4,0.665479620068254,1,f,1,same,0.5404692763095227,0.36602810900277816,0,0,0,0.3874791440948684,0,0,3.9905049101580516
12,28,male,29,165,115,right,change,valid,anti,3,0.6814186313395112,1,j,1,change,1.0635456417976457,0.36408447435598046,0,0,0,0.38749229430050036,0,0,4.635238637742077
12,28,male,30,135,135,right,same,valid,anti,3,0.4893027889338555,1,f,1,same,0.6652156537475094,0.3620270715072433,0,0,0,0.3874541266304732,0,0,4.265120330795071
12,28,male,31,15,165,left,change,catch,clock,1,0.457525156984957,0,j,1,change,1.017308877800133,0,0,0,0,0.38745989989183727,0,0,5.9242939462228605
12,28,male,32,45,45,left,same,valid,anti,4,2.024256997352495,1,f,1,same,1.202545879783429,0.35995636915156026,0,0,0,0.38748363440845424,0,0,6.699414847928892
12,28,male,33,135,185,left,change,valid,clock,1,0.8654429277876261,0,j,1,change,0.9462929570709093,0.3578462251824299,0,0,0,0.3874637487324435,0,0,4.573565136175603
12,28,male,34,165,215,left,change,valid,clock,3,0.5933606857606719,1,j,1,change,0.8010640119937307,0.3635432923820928,0,0,0,0.38747529525426216,0,0,4.209776568385678
12,28,male,35,45,355,left,change,valid,anti,3,0.9134501584758254,1,j,1,change,0.6795814514098311,0.3616437371979717,0,0,0,0.38749004914370744,0,0,4.636182245169948
12,28,male,36,15,325,right,change,valid,anti,4,0.7534326847398916,1,j,1,change,0.8079835859771265,0.3597197942405944,0,0,0,0.38742526032638125,0,0,4.21030674618396
12,28,male,37,105,105,left,same,valid,anti,2,1.5055128227331807,1,f,1,same,1.0159239366457768,0.35778695721297116,0,0,0,0.387516991027951,0,0,5.532786990404929
12,28,male,38,105,155,left,change,valid,clock,2,0.7054257747877273,1,j,1,change,0.8851028057406438,0.35592850778518714,0,0,0,0.3874169211712797,0,0,5.145273206744605
12,28,male,39,165,165,right,same,valid,clock,4,0.9374326051975004,1,f,1,same,0.8212149378632603,0.35411701418580727,0,0,0,0.38749710535103077,0,0,4.628087812581725
12,28,male,40,165,115,left,change,valid,anti,3,1.3134524677807349,1,j,1,change,0.6447760648297844,0.3521992544932337,0,0,0,0.38749486019423784,0,0,4.777481203224852
12,28,male,41,135,85,right,change,valid,anti,3,0.8335376426239236,1,j,1,change,1.0154421900933812,0.3502721509617668,0,0,0,0.3874153174874664,0,0,4.8904937485203845
12,28,male,42,105,105,left,same,valid,clock,4,1.5452581962663317,1,f,1,same,2.730593022949506,0.348299981792502,0,0,0,0.3874605413657264,0,0,7.726383032771082
12,28,male,43,15,15,left,same,valid,clock,4,0.9214419553136395,1,f,1,same,0.6512315327818214,0.34639826630728626,0,0,0,0.3875189154477994,0,0,4.4592234579140495
12,28,male,44,45,45,left,same,valid,clock,4,0.5454692410276039,1,f,1,same,0.7141199850411795,0.34454983563320574,0,0,0,0.387429109166078,0,0,3.988591074154101
12,28,male,45,75,75,left,same,valid,clock,4,0.6494251435779006,1,f,1,same,0.6871229338939884,0.34259848062558124,0,0,0,0.38746567315229186,0,0,4.3451935357434195
12,28,male,46,165,165,right,same,valid,anti,4,0.6494110311623444,1,f,1,same,0.7810952645795624,0.3406422431905482,0,0,0,0.38746823904602934,0,0,4.383362167564883
12,28,male,47,45,135,left,same,catch,clock,1,0.4332649522648353,0,j,0,change,0.5580587987378749,0,0,0,0,0.3874159589613555,0,0,5.643466817541594
12,28,male,48,15,15,right,same,valid,clock,4,0.5282796772880829,1,f,1,same,0.7325803076637385,0.33863190912891505,0,0,0,0.3874393727419374,0,0,4.349714961277641
12,28,male,49,75,25,right,change,valid,anti,4,0.5374533889362283,1,j,1,change,1.0303628622805263,0.33667492524367804,0,0,0,0.3874740123073934,0,0,4.587490883059218
12,28,male,50,75,125,left,change,valid,clock,3,1.2254532170218226,1,j,1,change,1.551564200906796,0.3347752032988145,0,0,0,0.38750191640247067,0,0,5.919511120262541
12,28,male,51,75,75,right,same,valid,anti,4,0.8654592853599752,1,f,1,same,0.5743057172603585,0.33277163566833634,0,0,0,0.3874759367272418,0,0,4.894938197241572
12,28,male,52,75,75,left,same,valid,anti,4,0.6654212459852715,1,f,1,same,1.1275441638426855,0.3307641345611241,0,0,0,0.3874791440948684,0,0,4.786746645575477
12,28,male,53,135,355,right,change,catch,clock,1,0.3614340395315594,0,j,1,change,0.45720345805511897,0,0,0,0,0.3875211606045923,0,0,5.409608374050549
12,28,male,54,45,45,right,same,valid,anti,2,1.0161734698140208,1,f,1,same,0.7148919983246742,0.32869548240818225,0,0,0,0.3875153873441377,0,0,4.909550320704511
12,28,male,55,105,95,right,same,catch,clock,2,1.4972615498900268,1,j,0,change,1.266965208405054,0,0,0,0,0.3874887661968387,0,0,7.562513831770957
12,28,male,56,135,185,right,change,valid,clock,3,0.576125898142891,1,j,1,change,0.6502404563188975,0.32667138730762846,0,0,0,0.3874775404110551,0,0,4.066159325323497
12,28,male,57,75,125,right,change,valid,clock,4,1.3534130556527089,1,j,1,change,0.912610469745232,0.32470504871556305,0,0,0,0.38747625746418635,0,0,5.345133557977533
12,28,male,58,45,95,left,change,valid,clock,3,0.521476851468833,1,j,1,change,0.6763436142282444,0.3226282081870609,0,0,0,0.38748203072555043,0,0,4.2247722929660085
12,28,male,1,15,15,left,same,valid,anti,3,1.384078051922188,1,f,1,same,1.2747488471122779,0.3205434698485049,0,0,0,0.3874993505087332,0,0,5.561306258022341
12,28,male,2,45,45,left,same,valid,clock,4,0.9214522188885894,1,f,1,same,0.5215169435587086,0.3183867694570823,0,0,0,0.3875105762936073,0,0,4.650023317559317
12,28,male,3,105,55,right,change,valid,anti,4,0.8093957897535802,1,j,1,change,0.7930754225226337,0.3162856830472205,0,0,0,0.3874983882978995,0,0,4.36762201305919
12,28,male,4,45,45,left,same,valid,anti,3,1.1134388043956278,1,f,1,same,0.6554671818985298,0.3142377448893799,0,0,0,0.3874335994805733,0,0,4.894646006090625
12,28,male,5,45,45,right,same,valid,anti,2,1.0415052559128526,1,j,0,change,1.1395313779939897,0.3120649187996999,0,0,0,0.387445146002392,0,0,5.298154288474507
12,28,male,6,15,325,left,change,valid,anti,3,0.6894248613298259,1,j,1,change,0.9322286519245608,0.309867159130887,0,0,0,0.3874153174883759,0,0,5.121259007089066
12,28,male,7,135,85,left,change,valid,anti,4,1.1054649688148857,1,j,1,change,0.6917748992718771,0.3076034652317898,0,0,0,0.3875064067160565,0,0,4.851110486742982
12,28,male,8,75,25,left,change,valid,anti,3,2.737445883696637,1,j,1,change,0.7742924387603125,0.30541733942404115,0,0,0,0.3874538058944381,0,0,6.566317127790171
12,28,male,9,75,125,left,change,valid,clock,3,2.5934030230073404,1,j,1,change,2.0992462045614957,0.3032723648273834,0,0,0,0.38750608597911196,0,0,7.717544170257497
12,28,male,10,165,115,right,change,valid,anti,3,1.6814224801801174,1,j,1,change,1.3077504103830506,0.30097728471346874,0,0,0,0.38748203072464094,0,0,5.953914944470853
12,28,male,11,165,165,right,same,valid,clock,4,0.9534210099236589,1,f,1,same,1.3038675716579746,0.2986032321207956,0,0,0,0.3874708049406763,0,0,5.64081047603122
12,28,male,12,45,135,left,same,catch,clock,1,0.29744578106146946,0,j,0,change,0.46403290502166783,0,0,0,0,0.38747048420373176,0,0,5.3471760094071215
12,28,male,13,15,15,right,same,valid,clock,4,1.2644455007375655,1,f,1,same,0.6454970809754741,0.2962616028866064,0,0,0,0.3875654222720186,0,0,5.08003086770168
12,28,male,14,15,65,left,change,valid,clock,2,0.40144915264590963,1,j,1,change,1.4767292680598985,0.2939771552191482,0,0,0,0.38746342799549893,0,0,4.896716361613471
12,28,male,15,105,105,right,same,valid,anti,3,0.6334380217986109,1,f,1,same,0.5485781420493367,0.291544496671455,0,0,0,0.38744386305643275,0,0,3.9169580559764654
12,28,male,16,105,165,left,change,catch,anti,1,0.34544852143608296,0,j,1,change,0.5122104469073747,0,0,0,0,0.38746663536312553,0,0,5.409809796710761
12,28,male,17,45,95,right,change,valid,clock,2,0.7043634947731334,1,j,1,change,0.8042607948746081,0.2890435175043629,0,0,0,0.38743648611125536,0,0,4.585527974336401
12,28,male,18,75,125,right,change,valid,clock,3,0.5054329592903741,1,j,1,change,0.6958354261405475,0.286534632821665,0,0,0,0.3875423292283813,0,0,4.285862053702658
12,28,male,19,15,325,right,change,valid,anti,3,1.0974609839813638,1,j,1,change,0.7898651686982703,0.2840874723105856,0,0,0,0.3874788233588333,0,0,4.985286844470465
12,28,male,20,75,25,right,change,valid,anti,3,0.649528100065254,1,j,1,change,1.0210018403868162,0.281475139836619,0,0,0,0.3874775404119646,0,0,4.7683790158644115
12,28,male,21,75,75,left,same,valid,clock,1,0.3854678041270745,0,j,0,change,0.5424854273269375,0.27877210586686196,0,0,0,0.38753944259769924,0,0,4.217461099447064
12,28,male,22,15,15,right,same,valid,anti,3,0.6414567605206685,1,f,1,same,0.6009005645610159,0.28600811809365334,0,0,0,0.38745669252512016,0,0,4.244199957533965
12,28,male,23,105,55,left,change,valid,anti,2,1.201445752836662,1,j,1,change,0.6829895997916537,0.28383122311102527,0,0,0,0.3874329580075937,0,0,5.000219383915464
12,28,male,24,75,75,right,same,valid,clock,1,0.4174734798843929,0,j,0,change,0.40427163577714964,0.28151604763499793,0,0,0,0.38746888051991846,0,0,3.8946652502927464
12,28,male,25,45,95,left,change,valid,clock,2,0.48143223057650175,1,f,0,same,0.8506236084031116,0.2876088507786944,0,0,0,0.3875243679722189,0,0,4.144873889529663
12,28,male,26,75,75,left,same,valid,anti,2,0.43345226250858104,1,f,1,same,0.7932697889746123,0.2855856287431501,0,0,0,0.3874329580066842,0,0,4.193642228453427
12,28,male,27,135,135,left,same,valid,anti,3,0.5854740905670042,1,f,1,same,0.6411530228469928,0.2836074745678493,0,0,0,0.3875282168128251,0,0,4.388147238681995
12,28,male,28,135,185,left,change,valid,clock,3,1.2734165067795402,1,j,1,change,1.090503563063976,0.2815030804318497,0,0,0,0.3874829929354746,0,0,5.371420498026964
12,28,male,29,105,155,left,change,valid,clock,3,1.1453719936544076,1,j,1,change,0.7967956477305052,0.27935919451395863,0,0,0,0.3874554095782514,0,0,5.379679147815295
12,28,male,30,15,165,left,change,catch,clock,1,0.5534000978886979,0,f,0,same,1.829789513320975,0,0,0,0,0.3875096140827736,0,0,7.047507522879641
12,28,male,31,45,355,right,change,valid,anti,1,0.7282356080622776,0,j,1,change,1.8328881507668484,0.27722268273154405,0,0,0,0.38748010630479257,0,0,5.935673364290778
12,28,male,32,135,135,right,same,valid,anti,2,0.5534478876597859,1,f,1,same,0.846347225723548,0.2831079109341336,0,0,0,0.38750768966292526,0,0,4.478483056441291
12,28,male,33,15,65,right,change,valid,clock,3,0.9774541330452848,1,j,1,change,0.7854935272125658,0.28116676861134204,0,0,0,0.387530141233583,0,0,4.92012116150363
12,28,male,34,15,15,left,same,valid,clock,4,1.009392133354595,1,f,1,same,0.7421940700905907,0.27918515515175485,0,0,0,0.38749646387805115,0,0,4.620220140854144
12,28,male,35,105,95,right,same,catch,clock,1,0.5934020607983257,0,j,0,change,1.1724226078331412,0,0,0,0,0.38747689893807546,0,0,6.439402890863676
12,28,male,36,165,215,right,change,valid,clock,1,0.408454042597441,0,j,1,change,0.7989410556465373,0.2772324080160301,0,0,0,0.3874352031634771,0,0,4.645880682091956
12,28,male,37,135,135,right,same,valid,clock,2,0.5854205275345521,1,f,1,same,1.2643524870882175,0.2826500936108175,0,0,0,0.3874781818849442,0,0,5.099334086423369
12,28,male,38,105,155,right,change,valid,clock,3,2.4014212485508324,1,j,1,change,1.4348250156681388,0.2808449452730529,0,0,0,0.3874839551453988,0,0,6.917230040714458
12,28,male,39,135,185,right,change,valid,clock,4,1.553413889568219,1,j,1,change,2.186035957151944,0.2790007713150916,0,0,0,0.38752148134153686,0,0,6.56482634351778
12,28,male,40,165,215,left,change,valid,clock,3,1.9212360423398422,1,j,1,change,4.212636256976111,0.277201417752878,0,0,0,0.38747786114799965,0,0,9.284084530803739
12,28,male,41,45,355,left,change,valid,anti,4,2.001414128196302,1,j,1,change,0.6914057313078956,0.2754636861822234,0,0,0,0.3874845966192879,0,0,5.520952767669769
12,28,male,42,165,165,right,same,valid,anti,4,0.4974549541320812,1,f,1,same,0.8681297392859051,0.2737638210991469,0,0,0,0.3874352031643866,0,0,4.717279562463773
12,28,male,43,165,165,left,same,valid,anti,3,1.593241692437914,1,f,1,same,3.134258145590138,0.2719591986351948,0,0,0,0.38746888051991846,0,0,7.860362137414995
12,28,male,44,75,355,left,same,catch,clock,1,1.081212461776886,0,j,0,change,0.4889926365267456,0,0,0,0,0.3874727293605247,0,0,6.361112982074701
12,28,male,45,165,115,left,change,valid,anti,2,0.4554304254697854,1,j,1,change,0.9233035112329162,0.2701426517789465,0,0,0,0.3875468195419671,0,0,4.623018889468767
12,28,male,46,165,165,left,same,valid,clock,4,0.8732919967851558,1,f,1,same,0.7184217059211733,0.2682951563627751,0,0,0,0.3875593282746195,0,0,4.596026007899127
12,28,male,47,105,105,left,same,valid,clock,4,0.5294987975585173,1,f,1,same,0.5861521279921362,0.26651971366516647,0,0,0,0.38744642895017023,0,0,3.9683352673764603
12,28,male,48,45,45,right,same,valid,clock,2,0.4333871529543103,1,f,1,same,0.7374805232620929,0.2647958625495035,0,0,0,0.38746406946938805,0,0,4.052731361828592
12,28,male,49,105,105,right,same,valid,clock,4,1.6334393047454796,1,f,1,same,0.5158867311865833,0.26298036604425723,0,0,0,0.38751987765863305,0,0,5.211495075728635
12,28,male,50,75,45,right,change,catch,anti,1,0.4573150744326995,0,f,0,same,0.555066966619961,0,0,0,0,0.38749710535103077,0,0,5.238154391109674
12,28,male,51,135,85,right,change,valid,anti,3,0.8404950635413115,1,j,1,change,0.6292870471761489,0.26116602339236805,0,0,0,0.3875035200853745,0,0,4.804612001582427
12,28,male,52,135,135,left,same,valid,clock,1,0.5693897855617251,0,j,0,change,0.7913251622449025,0.2593131742603845,0,0,0,0.3874711256776209,0,0,4.030485383706946
12,28,male,53,75,75,right,same,valid,anti,3,0.6654430560820401,1,f,1,same,0.6202900614589453,0.26424221325908426,0,0,0,0.3874493155799428,0,0,4.340547343626895
12,28,male,54,45,15,right,same,catch,clock,1,0.3294678143911369,0,j,0,change,0.41856719209772564,0,0,0,0,0.3874675975730497,0,0,5.191408297202543
12,28,male,55,45,105,right,change,catch,clock,1,0.37623860502571915,0,j,1,change,0.5418535759899896,0,0,0,0,0.38754970617264917,0,0,5.659405828811941
12,28,male,56,105,105,left,same,valid,anti,3,0.8635749571330962,1,f,1,same,0.7490671372515862,0.2625537518353206,0,0,0,0.3874935772473691,0,0,4.773725055503746
12,28,male,57,165,45,left,change,catch,anti,1,0.37738523879852437,0,j,1,change,0.7809528574753131,0,0,0,0,0.38744546673933655,0,0,5.487860756643386
12,28,male,58,135,355,right,change,catch,clock,1,0.35249446568741405,0,j,1,change,0.31415135309180187,0,0,0,0,0.3875205191316127,0,0,5.129034627377223
12,28,male,1,165,215,left,change,valid,clock,3,0.9760323071677703,1,j,1,change,0.5861611086202174,0.26086080328354877,0,0,0,0.3874586169449685,0,0,4.537112125067324
12,28,male,2,45,45,left,same,valid,clock,2,0.5614451370220195,1,f,1,same,0.7647758595585401,0.25913029621619327,0,0,0,0.38739703549526894,0,0,4.027448969183752
12,28,male,3,105,55,right,change,valid,anti,4,0.7933919896649968,1,j,1,change,0.764081464561059,0.257437776999059,0,0,0,0.38748684177608084,0,0,4.72934984742551
12,28,male,4,45,95,right,change,valid,clock,3,0.9614387864348828,1,j,1,change,0.8946751931316612,0.25580381221926357,0,0,0,0.3874493155799428,0,0,4.97739832485604
12,28,male,5,15,325,left,change,valid,anti,3,0.729484236110693,1,j,1,change,0.7626631667881156,0.2542068829703774,0,0,0,0.3875083311359049,0,0,4.223938056758925
12,28,male,6,165,165,left,same,valid,anti,4,0.6814022737662526,1,f,1,same,1.326324273803948,0.25251434789457217,0,0,0,0.3875067274520916,0,0,4.866585712718916
12,28,male,7,75,75,right,same,valid,anti,4,0.6335005654582346,1,f,1,same,0.8053192260485957,0.250814069246186,0,0,0,0.38746567315229186,0,0,4.590225484327675
12,28,male,8,135,85,left,change,valid,anti,3,0.9613913173998299,1,j,1,change,1.2161890576171572,0.24906727758716246,0,0,0,0.38752949975969386,0,0,5.386661265460134
12,28,male,9,45,355,right,change,valid,anti,3,0.5534122858844057,1,j,1,change,1.3108397464638983,0.24735360925797256,0,0,0,0.3875147458702486,0,0,5.123332890716483
12,28,male,10,45,45,right,same,valid,clock,4,0.7214831379087627,1,f,1,same,0.6029301865210073,0.24569494094234806,0,0,0,0.38745925841794815,0,0,4.509146128290922
12,28,male,11,45,45,right,same,valid,anti,4,0.425441862941625,1,f,1,same,0.751226657584084,0.2440691794606875,0,0,0,0.38752565091908764,0,0,4.007801920699421
12,28,male,12,135,185,right,change,valid,clock,4,0.5854805053013479,1,j,1,change,1.1393415018565065,0.2423396650601315,0,0,0,0.387533027864265,0,0,4.837426575346399
12,28,male,13,45,15,right,same,catch,clock,1,0.3774327078326678,0,j,0,change,0.42709141188879585,0,0,0,0,0.387469201256863,0,0,5.316176164002172
12,28,male,14,15,65,left,change,valid,clock,3,0.8404135964146917,1,j,1,change,0.7624800261210112,0.24059549127191443,0,0,0,0.3875160288180268,0,0,4.711244259614432
12,28,male,15,15,15,right,same,valid,anti,3,0.7934660798473487,1,f,1,same,0.9054477773261169,0.23878659163951543,0,0,0,0.38749902977087913,0,0,4.598492152534163
12,28,male,16,165,115,left,change,valid,anti,1,0.4174612918895946,0,j,1,change,0.5332270411845457,0.23701452658379124,0,0,0,0.38740505391251645,0,0,3.9868869999636445
12,28,male,17,45,135,left,same,catch,clock,3,1.1774014039292524,1,f,1,same,0.6470186559718059,0,0,0,0,0.38744642894926073,0,0,6.314379396899312
12,28,male,18,45,105,right,change,catch,clock,1,0.4725314658762727,0,j,1,change,0.2645154213423666,0,0,0,0,0.38739607328443526,0,0,5.378474460697362
12,28,male,19,75,25,left,change,valid,anti,3,0.800109178780076,1,j,1,change,0.5692159462605559,0.24200312662924767,0,0,0,0.3875051237691878,0,0,4.5525232036980015
12,28,male,20,165,115,right,change,valid,anti,4,1.417503949872298,1,j,1,change,0.5728373845586248,0.24037303956791,0,0,0,0.3874303921138562,0,0,5.011977271313299
12,28,male,21,105,95,right,same,catch,clock,1,0.38545176729166997,0,j,0,change,0.8335456610420806,0,0,0,0,0.38740505391251645,0,0,5.9085284535167375
12,28,male,22,135,85,right,change,valid,anti,2,0.48844738410389255,1,j,1,change,0.6194856537667874,0.2386870147892371,0,0,0,0.38753366933724465,0,0,4.145441593523174
12,28,male,23,45,45,left,same,valid,anti,3,0.6974747115127684,1,f,1,same,0.7942313576586457,0.23704897588273277,0,0,0,0.3874919735635558,0,0,4.594279917198037
12,28,male,24,105,105,right,same,valid,clock,4,0.9934200862007856,1,f,1,same,0.7326627370002825,0.23545685504853264,0,0,0,0.3875051237691878,0,0,4.718349860896524
12,28,male,25,75,75,left,same,valid,clock,4,1.0014725022792845,1,f,1,same,0.8846579439114066,0.23389050496406755,0,0,0,0.3874961431411066,0,0,4.717439930823275
12,28,male,26,75,75,right,same,valid,clock,2,1.289454625696635,1,f,1,same,0.5758930432848501,0.23221829924751552,0,0,0,0.3873761876084245,0,0,4.765845195781367
12,28,male,27,105,105,left,same,valid,anti,3,1.2654712167659454,1,f,1,same,0.5718835135558038,0.23052711838961742,0,0,0,0.38744546673933655,0,0,4.862421908626857
12,28,male,28,135,355,right,change,catch,clock,1,0.23344469312178262,0,j,1,change,0.36233530971276195,0,0,0,0,0.38740665759542026,0,0,5.2067533040699345
12,28,male,29,75,45,right,change,catch,anti,1,0.38423232628429105,0,f,0,same,0.7264442934847466,0,0,0,0,0.38750608597911196,0,0,5.612289925467849
12,28,male,30,105,155,left,change,valid,clock,2,0.8723775763974118,1,j,1,change,1.22807556043972,0.22876131188157023,0,0,0,0.38745027778986696,0,0,5.3166877390694935
12,28,male,31,165,165,left,same,valid,clock,3,1.3454552569064617,1,f,1,same,0.771618777466756,0.22702854075301965,0,0,0,0.3875445743851742,0,0,5.418849119673723
12,28,male,32,105,155,right,change,valid,clock,3,0.6174672575916702,1,j,1,change,0.6777551765298995,0.2253402123082992,0,0,0,0.3874329580075937,0,0,4.260386256816673
12,28,male,33,165,165,right,same,valid,clock,4,1.4173342801477702,1,f,1,same,2.526310353830013,0.22367411384962288,0,0,0,0.38742622253630543,0,0,7.0556167093564
12,28,male,34,135,135,left,same,valid,clock,4,0.5934799998203744,1,f,1,same,0.5265005507053502,0.2218876378701245,0,0,0,0.38741627969739056,0,0,4.051935293290626
12,28,male,35,105,55,left,change,valid,anti,4,1.4655297832914584,1,j,1,change,1.2055078833882362,0.2200722073009801,0,0,0,0.38748908693287376,0,0,5.682651543288557
12,28,male,36,75,125,right,change,valid,clock,3,0.7693274343437224,1,j,1,change,1.3958420333174217,0.21815365259703245,0,0,0,0.38750608597911196,0,0,5.570795574602926
12,28,male,37,15,15,right,same,valid,clock,4,0.5294994390314969,1,f,1,same,0.6216929638703732,0.2162915588002386,0,0,0,0.38745444736741774,0,0,4.36846490915832
12,28,male,38,15,65,right,change,valid,clock,4,1.4974007496266495,1,j,1,change,1.280109961377093,0.21446413405578119,0,0,0,0.387530141233583,0,0,5.8552422171633225
12,28,male,39,105,165,left,change,catch,anti,1,0.3534473744812203,0,j,1,change,0.36064663088563975,0,0,0,0,0.387487803986005,0,0,5.409507021247009
12,28,male,40,165,45,left,change,catch,anti,1,0.3125127091925606,0,j,1,change,0.6790018801584665,0,0,0,0,0.3875243679722189,0,0,5.846622097092222
12,28,male,41,15,15,left,same,valid,anti,3,1.0081912950772676,1,f,1,same,0.967060659652816,0.21251420572523033,0,0,0,0.38753431081022427,0,0,5.08170639632408
12,28,male,42,45,95,left,change,valid,clock,3,0.6014070078408622,1,j,1,change,0.6675227129699124,0.2105396471540376,0,0,0,0.38743969347888196,0,0,4.426592987027107
12,28,male,43,75,25,right,change,valid,anti,3,0.5854320740572803,1,j,1,change,0.5852069168804519,0.20844703350443983,0,0,0,0.38741788338120386,0,0,4.2425250703854545
12,28,male,44,75,125,left,change,valid,clock,3,0.5934642837210049,1,j,1,change,0.581475786622832,0.2063803425217997,0,0,0,0.3875323863903759,0,0,4.078003490898482
12,28,male,45,15,165,left,change,catch,clock,1,0.32146831987211044,0,j,1,change,0.40182601829110354,0,0,0,0,0.3875307827065626,0,0,5.206776397112662
12,28,male,46,45,355,left,change,valid,anti,3,1.0484347727351633,1,j,1,change,0.6276118392906938,0.2043520369616577,0,0,0,0.3874538058944381,0,0,4.913330202943143
12,28,male,47,15,15,left,same,valid,clock,2,0.609501440429085,1,f,1,same,1.1518207261351563,0.202183853046489,0,0,0,0.38752725460199144,0,0,4.853982684066068
12,28,male,48,105,105,right,same,valid,anti,3,1.0414273168898944,1,f,1,same,0.659079960305462,0.19998040294289987,0,0,0,0.38747786114799965,0,0,4.984820493280495
12,28,male,49,165,215,right,change,valid,clock,1,0.6414243661120054,0,j,1,change,1.8809088523976243,0.19763547678065913,0,0,0,0.3874473911591849,0,0,5.719419517856295
12,28,male,50,75,355,left,same,catch,clock,1,0.3134896732399284,0,j,0,change,0.5258674164206241,0,0,0,0,0.38751731176398607,0,0,5.17556614842033
12,28,male,51,135,135,left,same,valid,anti,3,0.7842942926190517,1,f,1,same,0.5762968508142876,0.20390948878993592,0,0,0,0.3874669561000701,0,0,4.46008078716568
12,28,male,52,135,135,right,same,valid,clock,3,0.7214289334024215,1,f,1,same,0.4818475846277579,0.2019245147939696,0,0,0,0.38738548897254077,0,0,4.1887875574684585
12,28,male,53,165,165,right,same,valid,anti,3,0.9534643093802515,1,f,1,same,0.5321868920027555,0.19990353841785113,0,0,0,0.38748106851562625,0,0,4.407165963933039
12,28,male,54,135,135,right,same,valid,anti,3,1.1614591852903686,1,f,1,same,0.6390181992428552,0.1977816409521171,0,0,0,0.38748587956615665,0,0,4.574675847434264
12,28,male,55,135,185,left,change,valid,clock,2,0.5374017503245341,1,f,0,same,1.3960790577530133,0.19572539033875508,0,0,0,0.3874685597829739,0,0,4.850777241292235
12,28,male,56,75,75,left,same,valid,anti,2,1.1774347605478397,1,f,1,same,0.5549447659295765,0.19370365146854973,0,0,0,0.38748042704173713,0,0,4.694042187142259
12,28,male,57,15,325,right,change,valid,anti,1,0.5694773466866536,0,j,1,change,0.43590365325599123,0.19153917445957208,0,0,0,0.3874692012559535,0,0,4.125155316755809
12,28,male,58,105,105,left,same,valid,clock,2,1.1691648849737248,1,f,1,same,0.9623057377875739,0.19726226799539115,0,0,0,0.3874961431401971,0,0,4.9728037713503
12,28,male,1,75,125,right,change,valid,clock,2,1.440252522433184,1,j,1,change,0.5881204892393725,0.1953802078059596,0,0,0,0.3875227642884056,0,0,5.129243106244758
12,28,male,2,75,25,right,change,valid,anti,3,1.1614046600479924,1,j,1,change,0.6595312368699524,0.1935272653876301,0,0,0,0.38753046196961805,0,0,4.925642002654968
12,28,male,3,45,15,right,same,catch,clock,1,0.2894485316992359,0,j,0,change,0.2850820220010064,0,0,0,0,0.3874403349518616,0,0,5.206688194515664
12,28,male,4,75,75,right,same,valid,clock,3,0.8564276600773155,1,f,1,same,0.4513323724058864,0.1915439780103388,0,0,0,0.3874791440948684,0,0,4.326440380496933
12,28,male,5,165,215,left,change,valid,clock,2,0.7854457374405683,1,j,1,change,0.8389481503427305,0.1895103073356948,0,0,0,0.3875131421873448,0,0,4.47571798518311
12,28,male,6,105,155,right,change,valid,clock,3,0.5374421631513542,1,j,1,change,0.8310249911637584,0.1874453479603178,0,0,0,0.38746823904602934,0,0,4.525018426325005
12,28,male,7,105,105,right,same,valid,anti,3,1.9133696535600393,1,f,1,same,2.2124701153561546,0.1854459147546373,0,0,0,0.3874695219928981,0,0,7.208134396382775
12,28,male,8,75,355,left,same,catch,clock,1,0.4734786014078054,0,j,0,change,0.9040060657725917,0,0,0,0,0.3875291790227493,0,0,5.986893093961044
12,28,male,9,15,15,left,same,valid,anti,3,0.5842421408269729,1,f,1,same,0.5782722682688473,0.1834823474638041,0,0,0,0.3875195569216885,0,0,4.200133939653824
12,28,male,10,135,135,right,same,valid,clock,3,1.137461984680158,1,f,1,same,0.6677456249908573,0.18138424851100732,0,0,0,0.38747048420373176,0,0,4.810082807805884
12,28,male,11,165,165,left,same,valid,clock,4,1.329402063362977,1,f,1,same,0.5475463320226481,0.1792337808858404,0,0,0,0.3875339900741892,0,0,4.948219622544457
12,28,male,12,75,45,right,change,catch,anti,1,0.337499703317917,0,j,1,change,0.4458897910144515,0,0,0,0,0.3874467496862053,0,0,5.471861767606242
12,28,male,13,45,355,left,change,valid,anti,4,0.888481767079611,1,j,1,change,0.7143589338966194,0.17708839256427866,0,0,0,0.3874807477786817,0,0,4.692849046546144
12,28,male,14,75,75,right,same,valid,anti,3,1.6974634857278943,1,f,1,same,0.7848879762859724,0.17500912054750983,0,0,0,0.38747305009746924,0,0,5.331803098445562
12,28,male,15,15,325,left,change,valid,anti,3,0.6014422888802073,1,j,1,change,0.5227033486835353,0.17296337750031876,0,0,0,0.38745765473413485,0,0,3.906935354230882
12,28,male,16,105,95,right,same,catch,clock,1,0.42549093565958174,0,j,0,change,0.34476535222347593,0,0,0,0,0.3874595791548927,0,0,5.284956934680849
12,28,male,17,45,95,right,change,valid,clock,1,0.2642389462898791,0,j,1,change,0.9499195271573626,0.17077010617402422,0,0,0,0.3874387312680483,0,0,4.387719055161142
12,28,male,18,135,135,left,same,valid,anti,3,0.7134320047771325,1,f,1,same,0.5392652306645687,0.17657950017344765,0,0,0,0.3874493155799428,0,0,4.5947430610212905
12,28,male,19,15,15,left,same,valid,clock,4,0.5134619615873817,1,f,1,same,0.7459489348657371,0.1746811034017663,0,0,0,0.38745925841885764,0,0,4.1112366260804265
12,28,male,20,15,165,left,change,catch,clock,1,0.4094239504374855,0,j,1,change,0.8454870098421452,0,0,0,0,0.3874473911591849,0,0,5.799458403975223
12,28,male,21,45,355,right,change,valid,anti,2,0.7316052680362191,1,f,0,same,0.9867429891764914,0.17267745113214295,0,0,0,0.38748523809317703,0,0,4.650705203825055
12,28,male,22,45,45,right,same,valid,clock,3,1.0334855549808708,1,f,1,same,0.6160929007492086,0.17066908959955251,0,0,0,0.3874926150374449,0,0,5.0718113477933
12,28,male,23,75,75,left,same,valid,anti,2,0.5854327155302599,1,f,1,same,0.8095234429674747,0.16861329919407947,0,0,0,0.38742846769309836,0,0,4.433111960849601
12,28,male,24,105,105,left,same,valid,clock,3,2.361459377732899,1,f,1,same,0.4914077840230675,0.16661485466474396,0,0,0,0.3875025578754503,0,0,6.081601836153823
12,28,male,25,135,185,left,change,valid,clock,2,1.169431737924242,1,j,1,change,0.7174043290478949,0.16467391959104738,0,0,0,0.3874538058935286,0,0,4.740467544330386
12,28,male,26,165,115,left,change,valid,anti,4,1.2494456065805934,1,j,1,change,0.7413165344269146,0.16262462452662002,0,0,0,0.38749967124567775,0,0,5.164992741727474
12,28,male,27,135,85,left,change,valid,anti,2,1.2333468684228137,1,j,1,change,2.6255469362904478,0.16056825737053265,0,0,0,0.38753366933633515,0,0,6.735302079464418
12,28,male,28,45,45,left,same,valid,clock,4,1.2815067697902123,1,f,1,same,2.0582400149842215,0.15845650493508806,0,0,0,0.38753623523098213,0,0,6.386358489997292
12,28,male,29,105,55,left,change,valid,anti,3,1.1773783108847056,1,j,1,change,1.2303720353502285,0.1564028076633432,0,0,0,0.38754264996441634,0,0,5.54105109271768
12,28,male,30,45,45,left,same,valid,anti,3,0.7854723585887768,1,f,1,same,0.5279217351080661,0.154400933097266,0,0,0,0.3874679183099943,0,0,4.802260359956563
12,28,male,31,15,15,right,same,valid,anti,1,0.5214434948502458,0,j,0,change,0.9856014871920706,0.1522756723903385,0,0,0,0.3874711256767114,0,0,4.356299686127386
12,28,male,32,165,215,right,change,valid,clock,4,1.0413929980604735,1,j,1,change,1.9410553264433474,0.15785636587365348,0,0,0,0.38751025555666274,0,0,6.1302919153176845
12,28,male,33,105,165,left,change,catch,anti,2,0.42544218367856956,1,f,0,same,1.3422533422371998,0,0,0,0,0.3875638185891148,0,0,6.532996110746353
12,28,male,34,15,65,left,change,valid,clock,2,0.7923178423916397,1,j,1,change,2.7611710995688554,0.15598893290171512,0,0,0,0.38752789607588056,0,0,6.9811887914065665
12,28,male,35,15,325,right,change,valid,anti,3,0.5534568682878671,1,j,1,change,0.5933619687084501,0.1541653124042171,0,0,0,0.3874855588292121,0,0,3.974290065308196
12,28,male,36,15,65,right,change,valid,clock,3,1.2732837217772612,1,j,1,change,1.1816056208463124,0.15222941125635342,0,0,0,0.3874554095773419,0,0,5.410658466070345
12,28,male,37,45,45,right,same,valid,anti,1,0.4415075652168525,0,j,0,change,1.070911681295911,0.1502779866665569,0,0,0,0.3874887661959292,0,0,5.036201874257131
12,28,male,38,45,135,left,same,catch,clock,1,0.3374618563857439,0,j,0,change,0.5644055369421039,0,0,0,0,0.38749806756095495,0,0,5.550151034921328
12,28,male,39,75,25,left,change,valid,anti,2,1.1362361289384353,1,j,1,change,0.7599138116283939,0.1554725857853025,0,0,0,0.387490369880652,0,0,4.8967894895868085
12,28,male,40,135,355,right,change,catch,clock,2,1.6334001748655282,1,f,0,same,0.8560071742385844,0,0,0,0,0.38744963631597784,0,0,6.875276074130852
12,28,male,41,105,155,left,change,valid,clock,2,0.9445045291231509,1,j,1,change,1.003458183308794,0.1537937147110891,0,0,0,0.387453164420549,0,0,5.284664743529902
12,28,male,42,15,15,right,same,valid,clock,3,0.5213415005737261,1,f,1,same,0.5959862365452864,0.15200746872860726,0,0,0,0.38753912186166417,0,0,4.330516623463154
12,28,male,43,165,165,left,same,valid,anti,3,0.5534283227207197,1,f,1,same,0.6723979111056906,0.1502052569953518,0,0,0,0.3875654222720186,0,0,4.271921232193563
12,28,male,44,105,105,right,same,valid,clock,3,0.6011007042743586,1,f,1,same,0.9371054537432428,0.14835142902677806,0,0,0,0.3874355239004217,0,0,4.724245001799318
12,28,male,45,105,105,left,same,valid,anti,3,0.5134872997887214,1,f,1,same,0.5039610984849787,0.14656049920252517,0,0,0,0.387577931004671,0,0,3.956412521304628
12,28,male,46,45,95,left,change,valid,clock,3,0.5614242891351751,1,j,1,change,0.5269380355903195,0.1448156538086962,0,0,0,0.3874429008446896,0,0,4.048192295776062
12,28,male,47,135,185,right,change,valid,clock,3,1.041462277192295,1,j,1,change,0.6215803852810495,0.14296965642191378,0,0,0,0.38743424095446244,0,0,4.606738293590752
12,28,male,48,165,115,right,change,valid,anti,1,0.33748879826998746,0,j,1,change,0.34790632691601786,0.14111581935444906,0,0,0,0.3874377690581241,0,0,3.835437366212318
12,28,male,49,135,135,left,same,valid,clock,3,0.9614413523286203,1,f,1,same,0.9306339489548918,0.146029918081936,0,0,0,0.38747946483181295,0,0,4.916571247493266
12,28,male,50,165,165,right,same,valid,anti,3,0.6654812237520673,1,f,1,same,0.41539286078568693,0.1444193292974728,0,0,0,0.38746663536312553,0,0,4.201513749021615
12,28,male,51,135,135,right,same,valid,anti,4,0.5774752375209573,1,f,1,same,0.3932703663003849,0.1427110503847464,0,0,0,0.38755964901156403,0,0,3.7400916408960256
12,28,male,52,135,85,right,change,valid,anti,3,1.4814537199372353,1,j,1,change,0.6158010303342962,0.14099329248237197,0,0,0,0.38747369157044886,0,0,5.050231539838023
12,28,male,53,105,55,right,change,valid,anti,3,0.6814532709049672,1,j,1,change,1.444628012760404,0.13921712990286889,0,0,0,0.3874265432723405,0,0,5.058145718388914
12,28,male,54,75,125,left,change,valid,clock,4,0.9934322741964934,1,j,1,change,0.8777938573784922,0.13744707295907482,0,0,0,0.38745348515749356,0,0,5.067066368766973
12,28,male,55,75,75,left,same,valid,clock,3,0.5854772979346308,1,f,1,same,0.5906379517491587,0.13573040990568042,0,0,0,0.3875015956655261,0,0,3.8752558677178968
12,28,male,56,165,165,right,same,valid,clock,4,0.48146141761844774,1,f,1,same,0.7402577825159824,0.13404383879248033,0,0,0,0.3875397633346438,0,0,4.229434842656701
12,28,male,57,165,45,left,change,catch,anti,1,0.273495087275478,0,j,1,change,0.3822966801826624,0,0,0,0,0.38750063345469243,0,0,5.362807434164097
12,28,male,58,45,105,right,change,catch,clock,1,0.36829171132922056,0,j,1,change,1.0126328571677732,0,0,0,0,0.3874926150365354,0,0,5.986785967897049
12,28,male,1,75,355,left,same,catch,clock,1,0.5764325224463391,0,j,0,change,0.4749594428421915,0,0,0,0,0.38741724190731475,0,0,5.860991422858206
12,28,male,2,165,45,left,change,catch,anti,2,0.47995716240438924,1,j,1,change,0.6545809863428076,0,0,0,0,0.38745669252512016,0,0,5.940175866358004
12,28,male,3,75,45,right,change,catch,anti,1,0.25646653336843883,0,j,1,change,0.23617095523695752,0,0,0,0,0.38750544450613233,0,0,5.316061019520021
12,28,male,4,45,45,right,same,valid,anti,1,0.22381970490914682,0,j,0,change,0.23670305745508813,0.1322439040994174,0,0,0,0.38746086210176145,0,0,3.764818517542153
12,28,male,5,75,125,right,change,valid,clock,2,0.5213793475058992,1,j,1,change,0.6743473488868403,0.13698081764570869,0,0,0,0.38753110344350716,0,0,4.139447024236688
12,28,male,6,45,15,right,same,catch,clock,2,0.5453941886353277,1,j,0,change,1.3942425192972223,0,0,0,0,0.3874191663280726,0,0,6.548446639994836
12,28,male,7,165,165,right,same,valid,anti,3,0.608243831751679,1,f,1,same,0.6834809684451102,0.13539341532379034,0,0,0,0.3874525229466599,0,0,4.731107484647509
12,28,male,8,105,165,left,change,catch,anti,2,0.4574629340613683,1,f,0,same,0.8970672475852552,0,0,0,0,0.38751923618474393,0,0,5.908702934291796
12,28,male,9,135,135,right,same,valid,anti,3,0.4563887867880112,1,f,1,same,0.7721473515803154,0.1338306801911464,0,0,0,0.3874069783323648,0,0,4.105167004402574
12,28,male,10,15,15,right,same,valid,clock,2,0.8254441722465344,1,f,1,same,1.2439847431960516,0.13216131765395256,0,0,0,0.387540725544568,0,0,5.120906838171322
12,28,male,11,75,75,right,same,valid,clock,1,0.2654907817059211,0,j,0,change,0.32115784672805603,0.13047222328402241,0,0,0,0.3873983184412282,0,0,3.9230097163981554
12,28,male,12,135,135,left,same,valid,clock,1,0.48145724803998746,0,f,1,same,0.8460659396214396,0.13497514165073526,0,0,0,0.3875253301821431,0,0,4.1821271387525485
12,28,male,13,165,215,left,change,valid,clock,2,0.6254526396951405,1,j,1,change,0.7324244296178222,0.13903451839541192,0,0,0,0.38744065568880615,0,0,4.520143548926171
12,28,male,14,135,135,right,same,valid,clock,3,0.4974597651826116,1,f,1,same,0.6455698882109573,0.13757591717734213,0,0,0,0.3874791440948684,0,0,4.330740497694023
12,28,male,15,45,355,right,change,valid,anti,3,0.5534052296761729,1,j,1,change,1.077242703399861,0.13616412572765085,0,0,0,0.3874393727419374,0,0,4.712321934991451
12,28,male,16,45,95,right,change,valid,clock,2,0.7212669613600156,1,j,1,change,2.5038796313574494,0.13478305713177569,0,0,0,0.3875189154477994,0,0,6.359754341331609
12,28,male,17,75,75,right,same,valid,anti,4,0.6254959391526427,1,f,1,same,0.750700007890373,0.13332106745461975,0,0,0,0.3874913320896667,0,0,4.201179862096069
12,28,male,18,105,155,left,change,valid,clock,3,0.809235100656224,1,j,1,change,0.6444287069625716,0.13185649149796308,0,0,0,0.38747305009655975,0,0,4.548115639699972
12,28,male,19,165,215,right,change,valid,clock,3,0.7933589537824446,1,j,1,change,1.3296525587411452,0.1303720461458383,0,0,0,0.38751891544870887,0,0,4.871100082043995
12,28,male,20,135,135,left,same,valid,anti,4,0.7134759457085238,1,f,1,same,0.8642340710921417,0.1288262045966268,0,0,0,0.3874675975730497,0,0,4.9226703769491
12,28,male,21,105,95,right,same,catch,clock,1,0.40145941622085957,0,j,0,change,0.5970196502566978,0,0,0,0,0.38750127492858155,0,0,5.518734552518254
12,28,male,22,165,165,left,same,valid,clock,4,0.542963966512616,1,f,1,same,0.4067823628156475,0.12731958786384734,0,0,0,0.387484917355323,0,0,3.9076778597363955
12,28,male,23,135,85,right,change,valid,anti,3,0.761413255791922,1,j,1,change,0.8195349189272747,0.12585653368736838,0,0,0,0.3873883756032228,0,0,4.373909094232658
12,28,male,24,165,165,left,same,valid,anti,3,0.8254047216296385,1,f,1,same,0.9782800300972667,0.12442026015441349,0,0,0,0.3874974260879753,0,0,4.868927411507684
12,28,male,25,105,55,right,change,valid,anti,3,0.6094385760316072,1,j,1,change,0.6665486355541361,0.12289328246518194,0,0,0,0.38753270712641097,0,0,4.328583863992208
12,28,male,26,165,165,right,same,valid,clock,4,0.8734514029347338,1,f,1,same,0.7149975207048556,0.12135699414484008,0,0,0,0.38744610821322567,0,0,4.598100212263489
12,28,male,27,15,65,left,change,valid,clock,3,1.0734169558108988,1,j,1,change,1.245411059387152,0.119782572949998,0,0,0,0.3874919735635558,0,0,5.065985806759272
12,28,male,28,165,115,right,change,valid,anti,4,0.705435076152753,1,j,1,change,0.8329205451755115,0.11816270678568391,0,0,0,0.3875455365960079,0,0,5.082852067886051
12,28,male,29,105,155,right,change,valid,clock,3,0.4574741598462424,1,j,1,change,0.5722270225824104,0.11659887634416549,0,0,0,0.3875064067160565,0,0,3.9240505070520157
12,28,male,30,105,105,right,same,valid,anti,3,1.3613076692636241,1,f,1,same,1.9460572155821865,0.11507217385254004,0,0,0,0.38749870903484407,0,0,6.342348280306396
12,28,male,31,165,115,left,change,valid,anti,2,1.089433264631225,1,j,1,change,0.6421084975345366,0.11356492212594793,0,0,0,0.38750768966292526,0,0,4.816532502497466
12,28,male,32,45,135,left,same,catch,clock,1,0.21750055006305047,0,j,0,change,0.3652020545114283,0,0,0,0,0.3875291790236588,0,0,5.331603600206108
12,28,male,33,45,105,right,change,catch,clock,2,0.6004351755809694,1,j,1,change,1.3842384202816902,0,0,0,0,0.38744963631688734,0,0,6.673334462326238
12,28,male,34,15,325,right,change,valid,anti,2,0.9364501886248036,1,j,1,change,0.83047524842641,0.11195163327244789,0,0,0,0.3875073689259807,0,0,5.347379677224126
12,28,male,35,75,125,left,change,valid,clock,1,0.273487068857321,0,j,1,change,0.378539249514688,0.11031771013665659,0,0,0,0.3875346315480783,0,0,3.698796467534521
12,28,male,36,135,185,right,change,valid,clock,3,0.6095341555737832,1,j,1,change,1.0410010577897992,0.1146734689144403,0,0,0,0.3875035200853745,0,0,4.831819456017911
12,28,male,37,15,15,left,same,valid,anti,4,0.4973725247946277,1,f,1,same,0.8169138584562461,0.11315924941448124,0,0,0,0.38750287861148536,0,0,4.554816150504848
12,28,male,38,15,15,right,same,valid,anti,3,0.7534798330370904,1,f,1,same,0.6954136573540382,0.11164014238951242,0,0,0,0.38754104628151254,0,0,4.438420795029742
12,28,male,39,15,325,left,change,valid,anti,1,0.3134136586368186,0,j,1,change,0.8402881883566806,0.11009825146446184,0,0,0,0.387522122815426,0,0,4.062549754284191
12,28,male,40,45,45,right,same,valid,clock,2,1.0094659028000024,1,f,1,same,1.2590997818351752,0.11421439253578675,0,0,0,0.38754906469966954,0,0,5.557033724183384
12,28,male,41,15,165,left,change,catch,clock,3,0.9054731155274567,1,f,0,same,0.5420444143383065,0,0,0,0,0.38745027778986696,0,0,6.43926080449728
12,28,male,42,75,75,left,same,valid,clock,2,0.8325170583821091,1,f,1,same,0.6032486780832187,0.11278613798714904,0,0,0,0.38748523809226754,0,0,4.686730993622405
12,28,male,43,75,75,left,same,valid,anti,3,1.393448695916959,1,f,1,same,0.5924100221245681,0.11134922595251862,0,0,0,0.3874473911591849,0,0,4.965276722018643
12,28,male,44,105,105,right,same,valid,clock,3,1.0334451421540507,1,f,1,same,0.7385450484343892,0.10988282577235653,0,0,0,0.3875080103998698,0,0,4.7942169245070545
12,28,male,45,105,105,left,same,valid,anti,3,0.529438819790812,1,f,1,same,0.7293565828967985,0.10837813070615959,0,0,0,0.38750127492767206,0,0,4.204716305163856
12,28,male,46,135,355,right,change,catch,clock,1,0.22545289628487808,0,j,1,change,0.8681666240090635,0,0,0,0,0.38748587956615665,0,0,5.612575701883543
12,28,male,47,75,25,left,change,valid,anti,2,0.4644514664405506,1,j,1,change,1.447449854417755,0.10692961883426821,0,0,0,0.38746310725946387,0,0,4.861640273242301
12,28,male,48,45,95,left,change,valid,clock,3,0.761506590177305,1,j,1,change,0.61958444067659,0.10552089929724356,0,0,0,0.38751923618474393,0,0,4.208549429697996
12,28,male,49,45,355,left,change,valid,anti,3,0.6490036955283358,1,j,1,change,2.6983118343514434,0.10413676251443443,0,0,0,0.3875404048085329,0,0,6.171346215402991
12,28,male,50,45,45,left,same,valid,clock,1,0.21745853355332656,0,j,0,change,0.2615393053229127,0.10266511753394103,0,0,0,0.38745027779077645,0,0,3.5518515810081226
12,28,male,51,105,55,left,change,valid,anti,2,0.47345486689027894,1,j,1,change,0.4727409069537316,0.10651327213429979,0,0,0,0.38743167505981546,0,0,3.801299753481544
12,28,male,52,135,185,left,change,valid,clock,3,0.6975529712726711,1,j,1,change,1.0487468495639405,0.10518896234680725,0,0,0,0.38743744832117955,0,0,4.609287829773166
12,28,male,53,135,85,left,change,valid,anti,2,0.873442101569708,1,j,1,change,0.5372263073386421,0.10388446716638466,0,0,0,0.3874384105311037,0,0,4.758288638671729
12,28,male,54,105,105,left,same,valid,clock,2,0.7773615684282049,1,j,0,change,1.685816252499535,0.1024945819223867,0,0,0,0.3874538058935286,0,0,5.239015889937946
12,28,male,55,75,25,right,change,valid,anti,1,0.8734244610495807,0,j,1,change,1.2668779680179796,0.10109514203159825,0,0,0,0.3874368068481999,0,0,5.0763943547772215
12,28,male,56,15,65,right,change,valid,clock,1,0.5535287133134261,0,j,1,change,1.0115144482269898,0.10479844927447984,0,0,0,0.3874791440948684,0,0,4.7251388950362525
12,28,male,57,15,15,left,same,valid,clock,3,0.4814796996106452,1,f,1,same,0.44054343063817214,0.1082334511706885,0,0,0,0.38742301516867883,0,0,4.0050496789108365
12,28,male,58,45,45,left,same,valid,anti,1,0.2334940865766839,0,j,0,change,0.26731032111456443,0.10699331852673866,0,0,0,0.3874845966192879,0,0,3.45021171830831
12,28,male,1,45,135,left,same,catch,clock,1,0.28810881442223035,0,j,0,change,0.3390549556715996,0,0,0,0,0.38748587956615665,0,0,5.02737359605544
12,28,male,2,15,65,right,change,valid,clock,1,0.19238814787968295,0,j,1,change,0.2793042707371569,0.1105793744649834,0,0,0,0.3874621450486302,0,0,3.520758080480846
12,28,male,3,165,165,right,same,valid,anti,1,0.22548881879720284,0,j,0,change,0.2266117180515721,0.11377804817062531,0,0,0,0.38748684177608084,0,0,3.4808680546866526
12,28,male,4,165,165,left,same,valid,anti,2,0.7054479056214404,1,f,1,same,0.785008252555599,0.11671121038098137,0,0,0,0.38746823904693883,0,0,4.424744260576517
12,28,male,5,15,165,left,change,catch,clock,2,0.5454997110164186,1,f,0,same,0.6657554536468524,0,0,0,0,0.38750608597911196,0,0,5.8464986134558785
12,28,male,6,135,185,right,change,valid,clock,2,0.46434979290097544,1,j,1,change,0.8351278552781878,0.11567587329657253,0,0,0,0.3875317449164868,0,0,4.389775298268432
12,28,male,7,105,55,right,change,valid,anti,2,0.5214470229539074,1,j,1,change,0.7154180065444962,0.11465814659358753,0,0,0,0.3875189154477994,0,0,4.373067801817342
12,28,male,8,45,355,left,change,valid,anti,3,1.57743161732742,1,j,1,change,0.7722349127052439,0.11357916536643287,0,0,0,0.38752083986855723,0,0,5.34782229389657
12,28,male,9,165,165,right,same,valid,clock,3,0.6894312760641697,1,f,1,same,0.7990468987645727,0.1124999830132064,0,0,0,0.38753623523098213,0,0,4.147845515234621
12,28,male,10,75,45,right,change,catch,anti,3,0.489454497402221,1,j,1,change,0.8717181417023312,0,0,0,0,0.3874643902054231,0,0,5.84626447564915
12,28,male,11,75,75,left,same,valid,clock,1,0.40848515405923536,0,j,0,change,0.2349450994952349,0.11141126508566473,0,0,0,0.38744450452941237,0,0,3.5934713399283282
12,28,male,12,45,45,left,same,valid,clock,3,0.9294831456063548,1,f,1,same,0.4670677158601393,0.11429168514657295,0,0,0,0.3874942187203487,0,0,4.356049190749218
12,28,male,13,165,45,left,change,catch,anti,1,0.5851440524829741,0,f,0,same,0.8101238621065932,0,0,0,0,0.3874765782011309,0,0,5.79936442811686
12,28,male,14,105,105,right,same,valid,anti,1,0.5364514074244653,0,j,0,change,1.0679807891538076,0.11325764761434587,0,0,0,0.38749389798340417,0,0,4.757969505635629
12,28,male,15,75,25,right,change,valid,anti,2,0.7534747012496155,1,j,1,change,0.7472639554143825,0.11595476413470124,0,0,0,0.38745829620802397,0,0,4.7824965633062675
12,28,male,16,165,115,right,change,valid,anti,2,0.7374506947480768,1,j,1,change,1.903527205850878,0.11501274537681977,0,0,0,0.3875599697485086,0,0,5.631428926988519
12,28,male,17,135,135,left,same,valid,clock,3,0.7054408494132076,1,f,1,same,0.7295374784062005,0.11408176156756811,0,0,0,0.3874961431411066,0,0,4.44679009898573
12,28,male,18,135,355,right,change,catch,clock,1,1.1295234301378514,0,j,1,change,0.46844784596396494,0,0,0,0,0.3875779310037615,0,0,6.017522488455143
12,28,male,19,45,45,right,same,valid,clock,2,1.1922492688809143,1,f,1,same,0.6656159331741947,0.11308959634476945,0,0,0,0.3874557303142865,0,0,4.904678971410249
12,28,male,20,105,165,left,change,catch,anti,3,0.6654578099714854,1,f,0,same,0.7048215068089121,0,0,0,0,0.38741884559203754,0,0,5.768446370575475
12,28,male,21,45,95,right,change,valid,clock,2,0.7363111171835044,1,j,1,change,0.7062260129023343,0.11209298807904206,0,0,0,0.3874791440948684,0,0,4.647735502539945
12,28,male,22,75,75,right,same,valid,clock,3,0.44146137912957784,1,f,1,same,0.4116476181125108,0.11108399808490527,0,0,0,0.38744642894926073,0,0,3.677663125091385
12,28,male,23,105,105,right,same,valid,clock,3,0.5934553030929237,1,f,1,same,0.6597243203750622,0.11005465279930776,0,0,0,0.38744963631688734,0,0,4.33012468319248
12,28,male,24,105,155,right,change,valid,clock,3,2.1454448008889813,1,j,1,change,1.2709898127604902,0.10900007425114888,0,0,0,0.3874919735635558,0,0,6.535638660577206
12,28,male,25,75,25,left,change,valid,anti,2,0.7533986866474152,1,j,1,change,0.8439439454850799,0.10798648926098187,0,0,0,0.38754649880593206,0,0,4.6941316726870355
12,28,male,26,135,85,left,change,valid,anti,2,0.7854502277550637,1,j,1,change,1.231912854550501,0.10700727544001876,0,0,0,0.387466314626181,0,0,5.045400282632727
12,28,male,27,75,125,right,change,valid,clock,2,1.4334378293569898,1,j,1,change,1.3936202900613353,0.10605455425844795,0,0,0,0.38747465378128254,0,0,5.997519742948498
12,28,male,28,75,355,left,same,catch,clock,1,0.3294803231228798,0,j,0,change,0.31090934633175493,0,0,0,0,0.3874393727410279,0,0,5.425139728951763
12,28,male,29,15,325,left,change,valid,anti,2,0.7043936440250036,1,j,1,change,1.5237813447974986,0.10512097997360631,0,0,0,0.38742654327325,0,0,5.303410201095176
12,28,male,30,15,15,left,same,valid,anti,1,0.817495674865313,0,j,0,change,0.24877045578614343,0.10419962178259007,0,0,0,0.38745925841794815,0,0,4.2301645186935275
12,28,male,31,75,75,right,same,valid,anti,2,1.1854586310573723,1,f,1,same,0.8508737830452446,0.10674892774645028,0,0,0,0.38740345022870315,0,0,4.929607591453532
12,28,male,32,165,215,left,change,valid,clock,2,0.40953396313216217,1,j,1,change,1.0112889703132169,0.10583758156191114,0,0,0,0.38745605105123104,0,0,4.390258969242495
12,28,male,33,105,155,left,change,valid,clock,1,1.097435325043989,0,j,1,change,1.6963348132130704,0.10494291780132214,0,0,0,0.3874775404110551,0,0,6.044372000710609
12,28,male,34,45,355,right,change,valid,anti,2,1.1134012782003992,1,j,1,change,0.7691917627116709,0.10740298695851813,0,0,0,0.38756189416835696,0,0,5.190266153744233
12,28,male,35,135,135,right,same,valid,anti,3,0.40145717106315715,1,f,1,same,0.6163658476980345,0.10650892820883712,0,0,0,0.38747529525426216,0,0,4.018512602708142
12,28,male,36,45,105,right,change,catch,clock,1,0.4013012930181503,0,f,0,same,1.3488938752761896,0,0,0,0,0.38752885828671424,0,0,6.2833061027859
12,28,male,37,135,85,right,change,valid,anti,2,0.7039138218924563,1,j,1,change,0.7239223406595556,0.1056355499654359,0,0,0,0.3875333486003001,0,0,4.848060601278121
12,28,male,38,45,15,right,same,catch,clock,1,0.3694473257291975,0,j,0,change,0.8775218726405001,0,0,0,0,0.3875227642884056,0,0,5.721741330968143
12,28,male,39,15,15,right,same,valid,clock,2,1.143372520945377,1,f,1,same,0.990469629119616,0.10477667505597393,0,0,0,0.387461182838706,0,0,5.15516312348791
12,28,male,40,15,15,right,same,valid,anti,2,0.44949134363650955,1,f,1,same,0.6910189228246963,0.10386711952439776,0,0,0,0.3874807477777722,0,0,4.67923216912277
12,28,male,41,165,165,left,same,valid,clock,1,0.2734806541238868,0,j,0,change,0.46584442601306364,0.10295945181525401,0,0,0,0.38745669252512016,0,0,3.701550313006919
12,28,male,42,45,45,left,same,valid,anti,1,0.9054205147058383,0,f,1,same,1.53082664757585,0.10533257481137226,0,0,0,0.3874708049406763,0,0,5.451365408288439
12,28,male,43,165,115,left,change,valid,anti,1,1.2573626717621664,0,f,0,same,1.5648346826728812,0.10781052788849166,0,0,0,0.3875160288180268,0,0,6.044898971140356
12,28,male,44,15,15,left,same,valid,clock,1,0.8813505068601444,0,f,1,same,1.8135025027086158,0.11033189571313373,0,0,0,0.387490369880652,0,0,6.199237480523152
12,28,male,45,45,45,right,same,valid,anti,1,0.7614456502005851,0,f,1,same,1.2176859358878573,0.11265689400273965,0,0,0,0.38750544450522284,0,0,5.148478970255383
12,28,male,46,75,75,left,same,valid,anti,3,1.23349248289378,1,f,1,same,0.4274660323781063,0.11478418399788004,0,0,0,0.387474333044338,0,0,5.031702900294476
12,28,male,47,105,95,right,same,catch,clock,2,0.5694433485941772,1,f,1,same,0.7083194614697277,0,0,0,0,0.38744129716178577,0,0,5.799677467154652
12,28,male,48,105,105,left,same,valid,clock,3,0.9441639067272263,1,f,1,same,0.5389063262755371,0.11399928842576468,0,0,0,0.3875282168128251,0,0,4.618525368029623
12,28,male,49,135,135,right,same,valid,clock,1,0.39347724148501584,0,j,0,change,1.0482468210175284,0.1132158500122113,0,0,0,0.38742654327325,0,0,4.151602945902596
12,28,male,50,15,65,left,change,valid,clock,2,0.5054679195927747,1,j,1,change,0.8127192636393374,0.11526283075946903,0,0,0,0.38744386305552325,0,0,4.4968561386758665
12,28,male,51,15,325,right,change,valid,anti,2,0.5294263110590691,1,j,1,change,0.9094168942292526,0.11454788037639135,0,0,0,0.387495822404162,0,0,4.546719472759833
12,28,male,52,165,215,right,change,valid,clock,2,1.1214543357518778,1,j,1,change,0.5186120310909246,0.11378819179942673,0,0,0,0.3875218020784814,0,0,4.60585145656114
12,28,male,53,105,105,left,same,valid,anti,3,0.5054794661145934,1,f,1,same,0.5035380467516006,0.11302844304549264,0,0,0,0.38741948706501717,0,0,4.314679606469326
12,28,male,54,135,185,left,change,valid,clock,3,0.6974410341581461,1,j,1,change,0.6739448243042716,0.11226383690771857,0,0,0,0.38750865187284944,0,0,4.38386315832031
12,28,male,55,105,55,left,change,valid,anti,2,1.42538605475238,1,j,1,change,0.914970771262233,0.11148960028475952,0,0,0,0.3875201983946681,0,0,5.463235874273778
12,28,male,56,135,135,left,same,valid,anti,3,0.6014291386736659,1,f,1,same,0.785792133097857,0.11070092747572219,0,0,0,0.3874522022106248,0,0,4.265795160852576
12,28,male,57,45,95,left,change,valid,clock,2,0.8094422965777994,1,j,1,change,1.2927040094018594,0.10989057635253147,0,0,0,0.3875048030322432,0,0,5.189763559305902
12,28,male,58,75,125,left,change,valid,clock,1,0.8759499419793428,0,j,1,change,0.994275491031658,0.1090755697979332,0,0,0,0.38746663536312553,0,0,5.03358819073037
12,28,male,1,105,155,right,change,valid,clock,3,0.6802553192583218,1,j,1,change,0.8369801098324388,0.11130229871690239,0,0,0,0.38748042704173713,0,0,4.641147249585629
12,28,male,2,15,325,left,change,valid,anti,2,0.44147196344056283,1,j,1,change,0.7559687499797292,0.11053162664911464,0,0,0,0.38751763250093063,0,0,4.306578117672871
12,28,male,3,15,65,left,change,valid,clock,2,0.4894548181391656,1,j,1,change,0.7503674039126054,0.10973737451309956,0,0,0,0.3875535550141649,0,0,4.287606540719935
12,28,male,4,105,155,left,change,valid,clock,1,0.24148427973159414,0,j,1,change,0.3081122014018547,0.10895099713167783,0,0,0,0.3875160288180268,0,0,3.6926306248406036
12,28,male,5,135,185,left,change,valid,clock,2,0.8494522779037652,1,j,1,change,1.0084741848640988,0.11112369877760708,0,0,0,0.3873716972939292,0,0,4.721751915280038
12,28,male,6,15,15,right,same,valid,clock,3,0.6095110625301459,1,f,1,same,1.0644924565931433,0.11036969117098977,0,0,0,0.38745027778986696,0,0,4.857572369429363
12,28,male,7,105,95,right,same,catch,clock,2,0.9454256849812737,1,j,0,change,1.1857963668226148,0,0,0,0,0.3874695219938076,0,0,6.782032778010034
12,28,male,8,75,75,left,same,valid,anti,2,0.7843568362786755,1,j,0,change,0.7402237844244155,0.10959270857489334,0,0,0,0.3874813892516613,0,0,5.145126630063714
12,28,male,9,105,105,left,same,valid,clock,3,0.5534472461868063,1,f,1,same,1.2807623398639407,0.10883316286941103,0,0,0,0.3874813892516613,0,0,4.747785473320619
12,28,male,10,15,165,left,change,catch,clock,1,0.4893848975343644,0,j,1,change,1.5290436721534206,0,0,0,0,0.387474333044338,0,0,6.688558872187059
12,28,male,11,135,135,left,same,valid,clock,3,0.59208287067122,1,f,1,same,1.470132996688335,0.1081026045482138,0,0,0,0.3874967846140862,0,0,5.646509967535167
12,28,male,12,45,355,right,change,valid,anti,2,1.3214025688439506,1,j,1,change,1.1525391763871085,0.10739641261388067,0,0,0,0.38745605105123104,0,0,5.469589027211441
12,28,male,13,165,165,left,same,valid,anti,3,0.5373404896108696,1,f,1,same,0.7404178301394495,0.10671029958040529,0,0,0,0.38747369157044886,0,0,4.848435542504376
12,28,male,14,165,165,left,same,valid,clock,4,0.7294726895888743,1,j,0,change,1.532925548667663,0.10604025720440369,0,0,0,0.38744707042314985,0,0,5.211140340917154
12,28,male,15,45,355,left,change,valid,anti,4,0.3854658797072261,1,j,1,change,1.204087019720646,0.10538250789248566,0,0,0,0.38746503167931223,0,0,4.615585815996383
12,28,male,16,135,185,right,change,valid,clock,2,0.6814725151089078,1,j,1,change,0.6746661611850868,0.10473346082399632,0,0,0,0.38749646387805115,0,0,4.388818219898894
12,28,male,17,135,355,right,change,catch,clock,2,0.9935041192220524,1,f,0,same,1.1264289622695287,0,0,0,0,0.38750929334582906,0,0,6.719969581328769
12,28,male,18,45,95,left,change,valid,clock,4,0.6164020909473038,1,j,1,change,0.7335328957206002,0.1040448520727999,0,0,0,0.3874387312680483,0,0,5.006883972208925
12,28,male,19,165,45,left,change,catch,anti,2,0.5294308013735645,1,f,0,same,1.988949016332299,0,0,0,0,0.3874961431411066,0,0,7.07868537716422
12,28,male,20,45,45,left,same,valid,clock,2,0.7282731342584157,1,f,1,same,0.7966628627291357,0.10335753860971764,0,0,0,0.38753591449403757,0,0,4.914119215272876
12,28,male,21,75,125,left,change,valid,clock,4,0.5294991182954618,1,j,1,change,1.1412409047079564,0.10266753903941561,0,0,0,0.3874919735635558,0,0,4.647038541648726
12,28,male,22,75,75,left,same,valid,clock,3,0.6973999798583463,1,j,0,change,0.8769140765580232,0.10197090902371514,0,0,0,0.3874775404110551,0,0,4.596919580399117
12,28,male,23,75,125,right,change,valid,clock,2,1.8413931263548875,1,j,1,change,2.2081898838350753,0.10126369829752851,0,0,0,0.3874602206287818,0,0,7.081444675161038
12,28,male,24,165,165,right,same,valid,anti,3,0.5774418809032795,1,f,1,same,0.646583736980574,0.10054190863470053,0,0,0,0.3875282168128251,0,0,4.325759777178064
12,28,male,25,75,355,left,same,catch,clock,2,0.47343113237457146,1,f,1,same,0.8238270177062077,0,0,0,0,0.3874557303142865,0,0,5.643436347552779
12,28,male,26,45,45,right,same,valid,anti,4,0.46438218730963854,1,f,1,same,0.47590850279539154,0.09979917551370715,0,0,0,0.3875115385035315,0,0,4.0586255405214615
12,28,male,27,15,15,left,same,valid,anti,2,0.5134770362137715,1,f,1,same,0.707125037926744,0.09906317517355612,0,0,0,0.3875291790236588,0,0,4.089038437729869
12,28,male,28,165,115,right,change,valid,anti,3,0.48946893055472174,1,j,1,change,0.7768592947249999,0.09835647771342093,0,0,0,0.38744707042314985,0,0,4.280704927990882
12,28,male,29,75,75,right,same,valid,clock,3,1.577144557963038,1,f,1,same,0.6706527826154343,0.0976747036534516,0,0,0,0.38748748324996996,0,0,5.405297993278509
12,28,male,30,75,25,left,change,valid,anti,1,1.0334531605712982,0,j,1,change,0.7643810326562743,0.09701379970181384,0,0,0,0.38746663536312553,0,0,4.8621364529471975
12,28,male,31,135,135,left,same,valid,anti,3,0.5455555192056636,1,f,1,same,0.4798368861338531,0.09894631136692855,0,0,0,0.3874679183090848,0,0,4.137695160275143
12,28,male,32,45,45,right,same,valid,clock,4,0.6814430073300173,1,f,1,same,0.5716631674285964,0.09826183919593395,0,0,0,0.3874137138045626,0,0,4.026422932419337
12,28,male,33,45,135,left,same,catch,clock,1,0.8494169968653296,0,j,0,change,0.36527454100905743,0,0,0,0,0.38750063345560193,0,0,5.659423790068104
12,28,male,34,105,105,left,same,valid,anti,3,0.584391604139455,1,f,1,same,0.46382635057398147,0.09760098731119121,0,0,0,0.38747369157044886,0,0,4.303885212176283
12,28,male,35,165,215,right,change,valid,clock,2,0.7214805720141158,1,j,1,change,0.7233498256155144,0.09695993827380589,0,0,0,0.3874335994805733,0,0,4.477106133705092
12,28,male,36,135,85,right,change,valid,anti,1,0.665492770273886,0,j,1,change,0.36075439842261403,0.09633512928509935,0,0,0,0.3874323165337046,0,0,4.062531793027119
12,28,male,37,15,15,right,same,valid,anti,3,0.4974895936975372,1,f,1,same,0.4771981851436067,0.09817190848039581,0,0,0,0.38748042704173713,0,0,3.813542915535436
12,28,male,38,45,105,right,change,catch,clock,2,1.0174435872222602,1,j,1,change,0.7246558655369881,0,0,0,0,0.38754585733295244,0,0,6.37681047859769
12,28,male,39,135,135,right,same,valid,clock,3,0.49635354423753597,1,f,1,same,0.7417665280445362,0.09753082073402569,0,0,0,0.38746888051991846,0,0,4.311896573954982
12,28,male,40,105,55,right,change,valid,anti,3,0.7854008343001624,1,j,1,change,1.7157512519961529,0.09690854693986806,0,0,0,0.3874961431411066,0,0,5.52505434883733
12,28,male,41,105,105,right,same,valid,clock,3,0.833457137707228,1,f,1,same,0.7032107670029291,0.0963017215947457,0,0,0,0.38749710535103077,0,0,4.601522152323014
12,28,male,42,165,165,right,same,valid,clock,2,0.6974323742660999,1,f,1,same,0.8704685514439916,0.09570717694595843,0,0,0,0.387437127584235,0,0,4.486470042228575
12,28,male,43,15,15,left,same,valid,clock,1,0.4654826349933501,0,j,0,change,0.3458491215988033,0.09512190887035499,0,0,0,0.387490369880652,0,0,3.8878303508026875
12,28,male,44,135,85,left,change,valid,anti,1,0.25743515826161456,0,j,1,change,0.9686993035520572,0.09685946711768234,0,0,0,0.38745925841885764,0,0,4.30603992145825
12,28,male,45,45,45,left,same,valid,anti,1,0.481404326482334,0,f,1,same,0.6439023780058051,0.09862979905748803,0,0,0,0.38745188147368026,0,0,4.367528037199918
12,28,male,46,75,45,right,change,catch,anti,2,0.48146205909142736,1,f,0,same,0.715188679790117,0,0,0,0,0.38744482526635693,0,0,5.6435434736167736
12,28,male,47,105,105,right,same,valid,anti,4,1.0484084723248088,1,f,1,same,0.402965916591711,0.10048202687092217,0,0,0,0.38742526032638125,0,0,4.549359135960913
12,28,male,48,75,75,right,same,valid,anti,3,0.7054892806581847,1,f,1,same,0.5758442913029285,0.09981990174373212,0,0,0,0.3874595791548927,0,0,4.440652801859869
12,28,male,49,15,65,right,change,valid,clock,1,0.5213924977115312,0,f,0,same,2.1146165496302274,0.09916406929712313,0,0,0,0.3874217322218101,0,0,5.5126213106459545
12,28,male,50,135,135,right,same,valid,anti,1,0.9694761278860824,0,j,0,change,0.8618984663007723,0.10097538293457997,0,0,0,0.3874515607367357,0,0,4.700774771618853
12,28,male,51,75,25,right,change,valid,anti,1,0.5054874845327504,0,j,1,change,1.1167719003842649,0.10262039717271254,0,0,0,0.3874079405431985,0,0,4.5564859058667935
12,28,male,52,45,15,right,same,catch,clock,1,0.44132795265431923,0,f,1,same,0.8975582955026766,0,0,0,0,0.38750127492858155,0,0,5.924398185656173
12,28,male,53,15,325,right,change,valid,anti,2,1.4641425969794,1,j,1,change,0.6619794202488265,0.10414449573273843,0,0,0,0.38754489512211876,0,0,5.16650918493724
12,28,male,54,165,215,left,change,valid,clock,2,0.3293703104282031,1,j,1,change,1.0193041809316128,0.10358283434809978,0,0,0,0.3875019164015612,0,0,4.137196735413454
12,28,male,55,105,165,left,change,catch,anti,2,0.681531851400905,1,j,1,change,0.36028612281279493,0,0,0,0,0.387516991027951,0,0,5.596763060880221
12,28,male,56,45,95,right,change,valid,clock,2,0.42441903354392707,1,j,1,change,0.5241235708772365,0.10301930537710491,0,0,0,0.38750352008628397,0,0,4.232415448989741
12,28,male,57,105,55,left,change,valid,anti,2,1.0654540252771767,1,j,1,change,0.6634830339899054,0.10245120153055476,0,0,0,0.3874765782011309,0,0,4.794136098853414
12,28,male,58,165,115,left,change,valid,anti,1,0.6254766949496116,0,j,1,change,0.5015761002396175,0.10187581426978415,0,0,0,0.3874881247229496,0,0,4.085098507868679
