subject,age,gender,ntrial,memory_ori,test_ori,cue,type,trial_type,which_change,pas,pas_rt,vis,test_key,test_acc,test,test_rt,contrast,fix_dur,cue_dur,jitter_dur,target_dur,mask_dur,retention_dur,trial_dur
13,26,female,1,135,135,right,same,catch,clock,1,2.3203839090238034,0,f,0,change,2.310008396885678,0,0,0,0,0.387450598525902,0,0,9.326646614208585
13,26,female,2,15,15,left,change,catch,clock,1,1.3602726518729469,0,f,1,change,1.8616511782893213,0,0,0,0,0.38754521585724433,0,0,7.780778376702074
13,26,female,3,135,135,right,same,valid,clock,1,0.7204702513481607,0,f,0,change,1.6268978793523274,0.5,0,0,0,0.3874935772473691,0,0,5.418294565886754
13,26,female,4,75,215,left,change,catch,clock,1,3.8973183844354935,0,f,1,change,1.1071507610104163,0,0,0,0,0.38739446959880297,0,0,9.339965206479974
13,26,female,5,105,165,left,same,catch,clock,1,1.2164440433116397,0,f,0,change,1.4847855329790036,0,0,0,0,0.38749229429959087,0,0,7.281883635434497
13,26,female,6,165,115,left,change,valid,anti,1,1.9683330222178483,0,f,1,change,1.2569919001143717,0.6571452603159259,0,0,0,0.38744322158163413,0,0,6.25137291352803
13,26,female,7,45,75,right,change,catch,anti,1,0.7934259877547447,0,f,1,change,2.218805307038565,0,0,0,0,0.38748748324724147,0,0,7.904639841530297
13,26,female,8,45,75,left,same,catch,anti,1,0.7125265650211077,0,f,0,change,1.4833130306979,0,0,0,0,0.38755130985737196,0,0,6.954114442709397
13,26,female,9,105,75,right,change,catch,anti,1,1.879674657498981,0,f,1,change,2.0815280667084153,0,0,0,0,0.38739799770337413,0,0,8.840788537640037
13,26,female,10,45,45,right,same,catch,clock,1,1.904195941908256,0,f,0,change,1.0349394545301038,0,0,0,0,0.38752629239388625,0,0,7.8433387152945215
13,26,female,11,165,215,right,change,valid,clock,1,2.3762337939733698,0,f,1,change,1.707524034405651,0.7719982136857017,0,0,0,0.3874441837906488,0,0,6.916794800985372
13,26,female,12,165,215,left,change,valid,clock,2,1.3134511848329566,1,f,1,change,1.3258325844144565,0.8640190595137247,0,0,0,0.38750929334491957,0,0,5.732324680499005
13,26,female,13,165,165,left,same,valid,clock,1,1.4973552050141734,0,f,0,change,2.4540073166463117,0.8299860920283681,0,0,0,0.38749870903484407,0,0,7.286296010483056
13,26,female,14,105,125,left,same,catch,anti,1,1.1854166145494673,0,f,0,change,1.6899598501768196,0,0,0,0,0.38743905200681183,0,0,7.453139723820641
13,26,female,15,45,355,right,change,valid,anti,1,5.640270676132786,0,f,1,change,2.1125898143000086,0.8905700901297022,0,0,0,0.3874679183099943,0,0,10.50986971032762
13,26,female,16,15,325,left,change,valid,anti,2,1.169369835737598,1,f,1,change,2.2969364511518506,0.9453062267214238,0,0,0,0.3874137138045626,0,0,6.760273678228259
13,26,female,17,75,25,left,change,valid,anti,3,1.6494735748237872,1,f,1,change,1.136755401686969,0.9257687328645559,0,0,0,0.3874839551426703,0,0,5.989674522792484
13,26,female,18,135,135,right,same,valid,anti,3,2.9693446258352196,1,j,1,same,1.462769202345953,0.9099765685670078,0,0,0,0.3874775404110551,0,0,7.773816465469281
13,26,female,19,105,105,right,same,valid,clock,3,2.6494020505306253,1,j,1,same,3.0392203275223437,0.8963494447327898,0,0,0,0.38747048420191277,0,0,8.667663837128202
13,26,female,20,105,105,left,same,valid,clock,3,3.5693288455840957,1,j,1,same,1.6702922745425894,0.8847805578261253,0,0,0,0.3874634279964084,0,0,8.24091850015975
13,26,female,21,105,155,left,change,valid,clock,3,2.529427914741973,1,f,1,change,1.263898003155191,0.8739479283277904,0,0,0,0.3874791440939589,0,0,6.922877572869766
13,26,female,22,15,15,left,same,valid,clock,3,2.233518141831155,1,j,1,same,1.661822900729021,0.8642113368253309,0,0,0,0.38744963631688734,0,0,7.027289242298139
13,26,female,23,15,15,right,same,valid,clock,3,2.2254625183850294,1,j,1,same,1.003247780019592,0.8552779598794126,0,0,0,0.3874429008428706,0,0,6.093575579361641
13,26,female,24,45,95,left,change,valid,clock,3,2.5533843817866,1,f,1,change,1.1680644372900133,0.8474677333340945,0,0,0,0.3874159589613555,0,0,6.6643875115405535
13,26,female,25,45,355,left,change,valid,anti,3,1.7854264932393562,1,f,1,change,1.1880944454169367,0.8400786436447993,0,0,0,0.3874563717872661,0,0,5.873658919590525
13,26,female,26,105,105,left,same,valid,anti,3,1.7055187884361658,1,j,1,same,1.0749471906965482,0.832995804897932,0,0,0,0.3874935772473691,0,0,6.070901417719142
13,26,female,27,15,15,right,same,valid,anti,2,2.3774025585807976,1,j,1,same,1.574985999839555,0.8261260609945688,0,0,0,0.38748203072464094,0,0,7.225317866126716
13,26,female,28,165,165,right,same,valid,anti,3,1.7934901351000008,1,j,1,same,1.0172200337256072,0.8198813749946308,0,0,0,0.38742141148395604,0,0,5.961087258991029
13,26,female,29,135,135,left,same,valid,anti,3,2.1695167331563425,1,j,1,same,1.0190780615448602,0.8137193942949837,0,0,0,0.38756991258560447,0,0,6.632737212068605
13,26,female,30,135,185,right,change,valid,clock,1,1.697369189132587,0,f,1,change,2.167914332505461,0.807599521061216,0,0,0,0.38756189417108544,0,0,7.033666129755147
13,26,female,31,165,115,right,change,valid,anti,2,3.601326502925076,1,f,1,change,4.805474141885497,0.8231281376335908,0,0,0,0.38745925841794815,0,0,11.445129644991539
13,26,female,32,45,95,right,change,valid,clock,2,4.321425982623623,1,j,0,same,1.6950714312770288,0.8179253188536548,0,0,0,0.3874355238986027,0,0,9.112946794270101
13,26,female,33,45,45,right,same,valid,clock,2,3.697418903324433,1,j,1,same,1.2222573963517789,0.8131218610797171,0,0,0,0.3874387312680483,0,0,7.873559491210472
13,26,female,34,75,25,right,change,valid,anti,2,3.865411174851033,1,f,1,change,1.7458774105762132,0.8082718324220065,0,0,0,0.3875179532369657,0,0,8.913904642406123
13,26,female,35,105,155,right,change,valid,clock,2,1.4654755787851172,1,f,1,change,1.3921641453525808,0.8037514364762556,0,0,0,0.3874149967523408,0,0,6.077057959049853
13,26,female,36,105,105,right,same,valid,anti,2,4.713381969850161,1,j,1,same,1.9809992360060278,0.7991631421006944,0,0,0,0.3874845966201974,0,0,9.911306674977823
13,26,female,37,15,65,right,change,valid,clock,2,4.3053310933064495,1,f,1,change,2.6259138590976363,0.7948254851096679,0,0,0,0.3874823514634045,0,0,10.00413974883486
13,26,female,38,45,45,right,same,valid,anti,2,2.7454396049542993,1,j,1,same,1.1460038449913554,0.7904367343250595,0,0,0,0.38748170998951537,0,0,7.2035690299198905
13,26,female,39,75,125,right,change,valid,clock,3,3.585385887970915,1,f,1,change,1.6441762871654646,0.786198889956173,0,0,0,0.3874647109405487,0,0,8.522368499550794
13,26,female,40,75,75,right,same,valid,clock,3,1.8494105821300764,1,j,1,same,0.9573567702063883,0.7822050632952249,0,0,0,0.3874708049406763,0,0,6.035625510372483
13,26,female,41,75,75,left,same,valid,anti,2,2.9533142045947898,1,j,1,same,1.3529896831823862,0.7780395582206854,0,0,0,0.3874897284040344,0,0,7.389132862623228
13,26,female,42,165,165,right,same,valid,clock,3,2.301171779530705,1,j,1,same,0.9962682282675814,0.7740702310261949,0,0,0,0.3874765782020404,0,0,6.569307356225181
13,26,female,43,15,65,left,change,valid,clock,2,1.561415629243129,1,f,1,change,3.063901659555995,0.7699783744680995,0,0,0,0.38747144641456543,0,0,7.687811555628286
13,26,female,44,75,75,right,same,valid,anti,3,1.9774336058944755,1,j,1,same,1.4842781274855952,0.7659501115666894,0,0,0,0.3874756159930257,0,0,7.06810010321351
13,26,female,45,165,165,left,same,valid,anti,2,1.529465120202076,1,j,1,same,1.1172016875862028,0.762115664347194,0,0,0,0.3874801063029736,0,0,5.672028743141709
13,26,female,46,75,75,left,same,valid,clock,4,1.897434811864514,1,j,1,same,1.0621921328420285,0.7580488432226926,0,0,0,0.38753848038686556,0,0,6.4878334940221976
13,26,female,47,15,15,left,same,valid,anti,3,1.777399094622524,1,j,1,same,0.9727017770746897,0.7541153053495222,0,0,0,0.38751731176671456,0,0,5.981009499580978
13,26,female,48,75,125,left,change,valid,clock,3,5.329474229125481,1,f,1,change,1.3721963601492462,0.7500236712267578,0,0,0,0.387484917355323,0,0,9.693385318340006
13,26,female,49,105,55,left,change,valid,anti,3,2.3611812989984173,1,f,1,change,1.4136345820879797,0.7459121338238479,0,0,0,0.38741884559203754,0,0,7.028338051371975
13,26,female,50,45,45,left,same,valid,clock,3,1.3694700980340713,1,j,1,same,0.9678637844008335,0.7419667952025897,0,0,0,0.38747625746691483,0,0,5.423481840847671
13,26,female,51,135,135,left,same,valid,clock,3,1.4414973016391741,1,j,1,same,0.9027205530037463,0.737719998173335,0,0,0,0.3873659240343841,0,0,5.192821142452885
13,26,female,52,45,45,left,same,valid,anti,3,1.449535926039971,1,j,1,same,1.039394487561367,0.733569419957371,0,0,0,0.3874993505087332,0,0,5.1646319129176845
13,26,female,53,135,185,left,change,valid,clock,3,1.5934899426574702,1,f,1,change,1.2706353986832255,0.7291664234109478,0,0,0,0.38753270712913945,0,0,6.3759589226065145
13,26,female,54,135,85,left,change,valid,anti,4,1.313426167369471,1,f,1,change,1.246008912628895,0.7247419063165246,0,0,0,0.3874621450486302,0,0,5.906011632479931
13,26,female,55,165,355,right,change,catch,anti,2,3.1373041822153027,1,f,1,change,3.528227717939444,0,0,0,0,0.3875070481917646,0,0,11.61763371995039
13,26,female,56,15,325,right,change,valid,anti,1,1.9673711327995989,0,f,1,change,2.493128857258853,0.7201123675341379,0,0,0,0.3874352031671151,0,0,7.424688773124217
13,26,female,57,105,55,right,change,valid,anti,2,3.4174478209461085,1,f,1,change,1.233542838559515,0.7321707105107986,0,0,0,0.3873723387696373,0,0,7.645563473473885
13,26,female,58,135,85,right,change,valid,anti,2,1.065423555290181,1,f,1,change,1.0219964449534018,0.72844535831752,0,0,0,0.38748587956433767,0,0,5.399667780908203
13,26,female,1,105,105,left,same,valid,anti,2,2.487300750333816,1,f,0,change,1.7131805471908592,0.7247988613727132,0,0,0,0.3875131421882543,0,0,7.161016568614286
13,26,female,2,135,135,left,same,valid,anti,3,2.1774684379015525,1,j,1,same,0.862308688563644,0.7210048510243438,0,0,0,0.3874894076689088,0,0,6.192214308579423
13,26,female,3,135,135,right,same,catch,clock,2,1.673436135868542,1,f,0,change,1.5420482631780033,0,0,0,0,0.38745669252602966,0,0,8.15497485103333
13,26,female,4,75,215,left,change,catch,clock,1,1.4404282861542015,0,f,1,change,2.6511548767084605,0,0,0,0,0.38749870903484407,0,0,8.747546845203033
13,26,female,5,75,75,left,same,valid,clock,3,3.5122685002570506,1,j,1,same,0.9507463864210877,0.7171713842591922,0,0,0,0.38747144641456543,0,0,7.548434772736073
13,26,female,6,165,165,right,same,valid,anti,2,2.1454807234040345,1,j,1,same,1.0721461969296797,0.7134631843400584,0,0,0,0.3874772196759295,0,0,6.1646399313358415
13,26,female,7,165,165,right,same,valid,clock,3,1.7854457374414778,1,j,1,same,0.9411765649201698,0.7095391080561999,0,0,0,0.38751185924047604,0,0,5.7052541806442605
13,26,female,8,165,115,right,change,valid,anti,3,2.8572949321678607,1,f,1,change,2.1930222443734237,0.7055959440660926,0,0,0,0.3875638185891148,0,0,7.866368253220571
13,26,female,9,165,115,left,change,valid,anti,3,1.4814668701401388,1,f,1,change,0.9288766324716562,0.7017836785805861,0,0,0,0.38745540957461344,0,0,5.434441414548928
13,26,female,10,105,105,right,same,valid,clock,2,1.289414212871634,1,j,1,same,1.26555909862509,0.6976480252740909,0,0,0,0.38745123999979114,0,0,5.228506309853401
13,26,female,11,135,185,right,change,valid,clock,2,3.273474239387724,1,f,1,change,1.0878744841756998,0.6935932259163267,0,0,0,0.3874711256758019,0,0,7.7613391656122985
13,26,female,12,165,215,left,change,valid,clock,2,2.2574422144680284,1,f,1,change,0.9854975684938836,0.6892770441775133,0,0,0,0.3874291091669875,0,0,6.582824163790065
13,26,female,13,75,125,right,change,valid,clock,2,1.7534063843268086,1,f,1,change,0.9766388203061069,0.6849060083345405,0,0,0,0.38749646387805115,0,0,6.142448799193517
13,26,female,14,45,75,right,change,catch,anti,1,1.5274634023371618,0,f,1,change,0.9986067196914519,0,0,0,0,0.38746920125413453,0,0,6.969450789685652
13,26,female,15,105,55,right,change,valid,anti,2,2.0244776642139186,1,f,1,change,0.9181380463669484,0.6803272963877998,0,0,0,0.387525009446108,0,0,5.899849317891494
13,26,female,16,45,45,right,same,catch,clock,1,1.2174389686151699,0,f,0,change,2.424085467351688,0,0,0,0,0.3874788233588333,0,0,8.481970426790213
13,26,female,17,45,355,right,change,valid,anti,1,1.8004533292805718,0,f,1,change,0.7161419093172299,0.6755915494640659,0,0,0,0.38737682908322313,0,0,5.441729835762089
13,26,female,18,15,15,right,same,valid,clock,2,1.64135348329728,1,j,1,same,1.199928347417881,0.6883084297953874,0,0,0,0.38745508883948787,0,0,5.66813948968047
13,26,female,19,15,325,right,change,valid,anti,2,1.2859986875446339,1,f,1,change,0.9963564308673085,0.6846872527380061,0,0,0,0.38750191640428966,0,0,5.684031031916675
13,26,female,20,135,85,left,change,valid,anti,2,0.9854719095565088,1,f,1,change,1.2234088411714765,0.680905156562368,0,0,0,0.3874675975712307,0,0,5.508536087050743
13,26,female,21,135,135,right,same,valid,clock,2,2.089386437070061,1,j,1,same,1.2283456207551353,0.67705428611849,0,0,0,0.3874473911600944,0,0,6.632487037426472
13,26,female,22,15,15,right,same,valid,anti,2,0.6254298673884477,1,j,1,same,1.2579666190031276,0.6733186622949086,0,0,0,0.387487803986005,0,0,4.5612562230926414
13,26,female,23,45,355,left,change,valid,anti,2,0.9295335012720898,1,f,1,change,1.0614027997762605,0.6693436323161048,0,0,0,0.38755483795830514,0,0,5.244776000683487
13,26,female,24,105,55,left,change,valid,anti,2,0.6653923796802701,1,f,1,change,1.733265722035867,0.6653337888454252,0,0,0,0.3874618243135046,0,0,5.593998310356255
13,26,female,25,75,75,right,same,valid,clock,2,0.817540578005719,1,j,1,same,1.0264444217791606,0.6614491180258206,0,0,0,0.3874743330452475,0,0,4.6240519824423245
13,26,female,26,105,75,right,change,catch,anti,2,0.7055396363248292,1,j,0,same,1.0099502152479545,0,0,0,0,0.3874993505087332,0,0,6.501574817295477
13,26,female,27,105,105,right,same,valid,anti,2,0.791992294620286,1,j,1,same,1.0747403155146458,0.657214946074653,0,0,0,0.38746406947029755,0,0,5.450633166357875
13,26,female,28,135,185,left,change,valid,clock,2,1.2895162071472441,1,f,1,change,1.182331768781296,0.6530799245273349,0,0,0,0.3875179532369657,0,0,5.564781440374645
13,26,female,29,15,65,right,change,valid,clock,2,3.4254229394755384,1,f,1,change,1.1814673833214329,0.6486604995627653,0,0,0,0.387455730313377,0,0,8.026277638684405
13,26,female,30,45,45,left,same,valid,clock,2,0.7534439105256752,1,j,1,same,0.9678134287350986,0.6442610876828612,0,0,0,0.3874743330452475,0,0,5.046089225106698
13,26,female,31,15,65,left,change,valid,clock,2,2.2014518468349706,1,f,1,change,0.9712020121733076,0.639646766568935,0,0,0,0.38746920125413453,0,0,6.246371986599115
13,26,female,32,105,155,right,change,valid,clock,2,1.6654645454400452,1,f,1,change,0.8618750525201904,0.6349955571855107,0,0,0,0.38751442513239454,0,0,5.79734378678404
13,26,female,33,75,25,left,change,valid,anti,2,2.0334791402456176,1,f,1,change,0.860281311761355,0.6301681147268222,0,0,0,0.3873437932015804,0,0,5.815639892203762
13,26,female,34,135,135,left,same,valid,clock,2,0.8895122941576119,1,j,1,same,1.0761595754993323,0.6252957960720228,0,0,0,0.38743392021933687,0,0,5.180106176685513
13,26,female,35,165,165,left,same,valid,clock,2,1.105403066627332,1,f,0,change,1.4739911386859603,0.6205966916434985,0,0,0,0.38749325651224353,0,0,5.830824209977436
13,26,female,36,105,165,left,same,catch,clock,1,1.3134499018851784,0,f,0,change,1.7600777080951957,0,0,0,0,0.3875359144913091,0,0,8.030253811797593
13,26,female,37,165,165,left,same,valid,anti,2,1.8244851694544195,1,j,1,same,1.3607149478084466,0.6155258464340927,0,0,0,0.3874570132611552,0,0,6.072028807288007
13,26,female,38,15,15,left,same,valid,anti,2,0.7454360768497281,1,j,1,same,0.9523526359116659,0.6106258014588224,0,0,0,0.3875179532369657,0,0,4.882314641439734
13,26,female,39,135,135,right,same,valid,anti,2,0.7534599473583512,1,f,0,change,2.425789541546692,0.6053274309557559,0,0,0,0.38750448229620815,0,0,6.302295640994998
13,26,female,40,45,45,left,same,valid,anti,2,1.0573547816384234,1,f,0,change,1.4362503696502245,0.6001932010967092,0,0,0,0.3874643902054231,0,0,5.301928397453594
13,26,female,41,75,25,right,change,valid,anti,1,1.5053733022614324,0,f,1,change,0.8200721529319708,0.5945959451141556,0,0,0,0.3874685597838834,0,0,5.789592221750354
13,26,female,42,135,85,right,change,valid,anti,2,2.5294683275715215,1,f,1,change,1.4897290480330412,0.6088643967665621,0,0,0,0.3874926150383544,0,0,6.848736714284314
13,26,female,43,15,15,left,same,valid,clock,2,1.5132547656648967,1,f,0,change,1.6475860392311006,0.6046256704610591,0,0,0,0.38750127492676256,0,0,6.278392736981914
13,26,female,44,45,45,right,same,valid,clock,2,0.6734245893458137,1,f,0,change,1.06593352667187,0.6002407438217673,0,0,0,0.38748267219853005,0,0,5.046578669342125
13,26,female,45,75,75,right,same,valid,anti,2,0.9934742907062173,1,j,1,same,0.8936443453130778,0.5958712848341103,0,0,0,0.38749742608706583,0,0,5.270470860748901
13,26,female,46,75,125,left,change,valid,clock,2,0.6895239689765731,1,f,1,change,1.0141101704939501,0.5916834526336693,0,0,0,0.38744386305552325,0,0,4.692668792507902
13,26,female,47,165,215,right,change,valid,clock,1,1.0894117752723105,0,f,1,change,2.771112013448146,0.587202320667227,0,0,0,0.3874935772473691,0,0,7.099052479585225
13,26,female,48,105,125,left,same,catch,anti,1,0.8974768283769663,0,f,0,change,0.5072213872408611,0,0,0,0,0.3875137836621434,0,0,6.017892618627229
13,26,female,49,105,105,left,same,valid,clock,2,1.152047486993979,1,j,1,same,0.9942379648346105,0.599082849561307,0,0,0,0.38751346292337985,0,0,5.400626462960645
13,26,female,50,15,15,left,change,catch,clock,1,0.8574918645135767,0,f,1,change,1.130356062662031,0,0,0,0,0.38748042704173713,0,0,7.032055710686109
13,26,female,51,15,325,left,change,valid,anti,1,1.4236582460434875,0,f,1,change,0.9250226600488531,0.5954392764715126,0,0,0,0.3875073689268902,0,0,5.79796826117672
13,26,female,52,75,75,left,same,valid,anti,2,0.993438047458767,1,f,0,change,0.9606661316756799,0.6054564007466342,0,0,0,0.38746631462709047,0,0,4.68861435963845
13,26,female,53,105,155,left,change,valid,clock,2,1.0015209335215332,1,f,1,change,1.0606914057316317,0.6023873361754926,0,0,0,0.3875291790209303,0,0,5.086747415341961
13,26,female,54,165,355,right,change,catch,anti,1,0.8414245585554454,0,f,1,change,0.9759460289897106,0,0,0,0,0.3874743330416095,0,0,6.844861893976486
13,26,female,55,45,95,right,change,valid,clock,2,1.8081032207737735,1,f,1,change,1.0064609204746375,0.5991447339858489,0,0,0,0.38741627969648107,0,0,6.0789432494857465
13,26,female,56,45,95,left,change,valid,clock,2,1.2334341088098881,1,f,1,change,1.1385852046696527,0.5960005912841693,0,0,0,0.3874573339999188,0,0,5.536860346743197
13,26,female,57,45,45,right,same,valid,anti,1,0.9454635319125373,0,f,0,change,0.6400516129542666,0.5929912173565073,0,0,0,0.3874627865225193,0,0,5.069854853805737
13,26,female,58,45,75,left,same,catch,anti,1,1.0414667675031524,0,f,0,change,1.0938748267217306,0,0,0,0,0.38749967124385876,0,0,6.517307915590209
13,26,female,1,45,45,right,same,valid,anti,2,3.8476173431299685,1,f,0,change,1.2991992487077368,0.6011692389832874,0,0,0,0.3875006334565114,0,0,7.87243562974254
13,26,female,2,135,135,right,same,valid,clock,2,1.617487464005535,1,j,1,same,0.9309068959046272,0.5982852084440659,0,0,0,0.38749742608706583,0,0,5.828065874193271
13,26,female,3,15,15,left,same,valid,anti,2,6.793393914085755,1,j,1,same,1.0044396376688383,0.5955293285003145,0,0,0,0.38750127492676256,0,0,10.616068845494738
13,26,female,4,15,15,right,same,valid,anti,2,1.193469992835162,1,f,0,change,1.4643286242753675,0.5928774563962431,0,0,0,0.3874056953827676,0,0,5.678479079306271
13,26,female,5,135,135,right,same,catch,clock,2,1.7694355226158223,1,f,0,change,0.942331217112951,0,0,0,0,0.3874720878848166,0,0,7.702699512672552
13,26,female,6,165,115,left,change,valid,anti,2,6.160274383848446,1,f,1,change,1.162579518648272,0.5900862535746697,0,0,0,0.3875391218607547,0,0,10.75578881668116
13,26,female,7,135,85,left,change,valid,anti,2,1.393451582545822,1,f,1,change,0.8234761317362427,0.5873257074384735,0,0,0,0.38744867410423467,0,0,5.26189853044707
13,26,female,8,45,95,left,change,valid,clock,2,1.6734518519660924,1,f,1,change,0.8410047141878749,0.5846982411110083,0,0,0,0.3875243679722189,0,0,5.507423130631651
13,26,female,9,105,155,left,change,valid,clock,2,1.9373844946894678,1,f,1,change,0.8606180853203114,0.5819692031434124,0,0,0,0.3875227642893151,0,0,5.671324405306223
13,26,female,10,105,105,left,same,valid,clock,2,2.769445144720521,1,j,1,same,1.4937632744913572,0.5792499041547446,0,0,0,0.3875339900732797,0,0,7.263502855519619
13,26,female,11,75,75,right,same,valid,anti,2,1.761443084305938,1,j,1,same,1.346498613456788,0.5765987559959804,0,0,0,0.387533027864265,0,0,6.184332524437195
13,26,female,12,105,165,left,same,catch,clock,1,1.1614646378147881,0,f,0,change,0.928274930385669,0,0,0,0,0.38747369157135836,0,0,6.907038952191215
13,26,female,13,75,125,left,change,valid,clock,1,2.5841914644261124,0,f,1,change,1.1102253432036377,0.5740579957704574,0,0,0,0.38744803263398353,0,0,6.941381515684043
13,26,female,14,15,15,left,same,valid,clock,2,1.5614438540760602,1,j,1,same,0.9157475955980772,0.5809413358764922,0,0,0,0.38742044927494135,0,0,5.717777345853392
13,26,female,15,15,65,right,change,valid,clock,2,3.2414794686774258,1,f,1,change,0.9768206780245237,0.5784751938332648,0,0,0,0.3873996013899159,0,0,7.023201773547044
13,26,female,16,45,45,right,same,catch,clock,1,3.3934788451697386,0,f,0,change,0.22867469663106021,0,0,0,0,0.3875227642893151,0,0,8.201293082158372
13,26,female,17,165,165,right,same,valid,clock,2,1.3204333024768857,1,j,1,same,1.036098597032833,0.5761100425174979,0,0,0,0.3875355937561835,0,0,5.3868097665617825
13,26,female,18,45,45,right,same,valid,clock,2,1.4893464091292117,1,f,0,change,1.1496294528697035,0.5738320606965134,0,0,0,0.3874708049406763,0,0,6.131616878705245
13,26,female,19,75,75,left,same,valid,anti,2,2.137436005006748,1,j,1,same,0.9070463291354827,0.5714405355928601,0,0,0,0.38742686401019455,0,0,6.455687014848081
13,26,female,20,105,105,right,same,valid,anti,2,1.129462490160222,1,j,1,same,0.9442546752179624,0.5690391835240166,0,0,0,0.38744129716360476,0,0,5.323075210839306
13,26,female,21,15,65,left,change,valid,clock,2,2.985370236019662,1,f,1,change,0.9727184553848929,0.5667063124669203,0,0,0,0.3874663146234525,0,0,6.811227837897604
13,26,female,22,75,215,left,change,catch,clock,1,1.4894589877185354,0,f,1,change,0.5934944329710561,0,0,0,0,0.38745669252602966,0,0,6.6730913438914286
13,26,female,23,45,355,left,change,valid,anti,1,1.8644518513247021,0,f,1,change,0.8524861265323125,0.5644648837398258,0,0,0,0.3874759367281513,0,0,6.098255448836426
13,26,female,24,105,55,left,change,valid,anti,2,1.5214736441012064,1,f,1,change,0.8649396918735874,0.5705478579885476,0,0,0,0.38751827397209127,0,0,5.212986180737062
13,26,female,25,165,215,left,change,valid,clock,2,1.217554113096412,1,f,1,change,1.0145088462413696,0.5683471583510027,0,0,0,0.3874233359056234,0,0,5.137453645525966
13,26,female,26,165,165,left,same,valid,clock,2,1.2334623336428194,1,j,1,same,0.7443029140231374,0.5662397466043348,0,0,0,0.38744225937261945,0,0,5.443786078871199
13,26,female,27,45,75,left,same,catch,anti,1,1.5534552646022348,0,f,0,change,0.8161713529516419,0,0,0,0,0.38746631462709047,0,0,6.923217233055766
13,26,female,28,75,75,left,same,valid,clock,2,1.3040603344234114,1,j,1,same,2.7937711004669836,0.5642056809708574,0,0,0,0.38751987765863305,0,0,7.246501884968893
13,26,female,29,135,85,right,change,valid,anti,1,1.39346184612441,0,f,1,change,1.1337003844346327,0.5620705211529288,0,0,0,0.387479785567848,0,0,5.598401384042518
13,26,female,30,105,105,left,same,valid,anti,2,2.00139199736077,1,j,1,same,1.4125350966169208,0.5676159112582729,0,0,0,0.3874538058953476,0,0,6.756936412661162
13,26,female,31,45,355,right,change,valid,anti,2,1.5374100894805451,1,f,1,change,1.345587400435761,0.5656973125574806,0,0,0,0.3875185947108548,0,0,5.729156443183456
13,26,female,32,135,185,left,change,valid,clock,2,1.1615031262190314,1,f,1,change,1.0313571461119864,0.5638359301090312,0,0,0,0.38749389798613265,0,0,5.586046284872282
13,26,female,33,45,45,left,same,valid,anti,2,1.625470600953122,1,j,1,same,0.8661171163694235,0.5618740782821792,0,0,0,0.38745444736923673,0,0,5.968350662737066
13,26,female,34,15,325,right,change,valid,anti,2,1.5534581512365548,1,f,1,change,1.2156159011028649,0.559907970644943,0,0,0,0.3874525229475694,0,0,5.51232302549397
13,26,female,35,165,215,right,change,valid,clock,2,1.2734280533004494,1,f,1,change,0.7402658009341394,0.5579480552675423,0,0,0,0.3875176325018401,0,0,5.420715165906586
13,26,female,36,135,185,right,change,valid,clock,1,1.4893576349131763,0,f,1,change,0.6515541939224931,0.5560751760983873,0,0,0,0.38745091926466557,0,0,5.221834986088652
13,26,female,37,105,105,right,same,valid,clock,2,1.5774887084626243,1,j,1,same,0.7979474132916948,0.5614470823856078,0,0,0,0.3874246188534016,0,0,5.290293031481269
13,26,female,38,75,25,right,change,valid,anti,2,1.321473451658676,1,f,1,change,1.197233517501445,0.5596128506518662,0,0,0,0.38749261503471644,0,0,5.240728624023177
13,26,female,39,75,125,right,change,valid,clock,2,1.4014116264479526,1,f,1,change,0.8954943547105358,0.5578076095580967,0,0,0,0.38742044927494135,0,0,5.757879699354817
13,26,female,40,75,25,left,change,valid,anti,2,1.2014335648382257,1,f,1,change,0.755529019937967,0.5560792413336515,0,0,0,0.3874829929372936,0,0,4.856060416535911
13,26,female,41,15,15,right,same,valid,clock,2,1.9695252006058581,1,f,0,change,1.1368513019660895,0.5544029106680379,0,0,0,0.3874775404110551,0,0,6.307346282115759
13,26,female,42,45,75,right,change,catch,anti,1,1.7214321407700481,0,f,1,change,0.7839341052822419,0,0,0,0,0.38745284368269495,0,0,7.312648701561557
13,26,female,43,165,115,right,change,valid,anti,1,2.432276441697468,0,f,1,change,1.81618289947437,0.5526401301928405,0,0,0,0.3875355937561835,0,0,7.589816224273818
13,26,female,44,105,75,right,change,catch,anti,1,1.5853781902878836,0,f,1,change,1.6639073686674237,0,0,0,0,0.387463748735172,0,0,7.686378503967717
13,26,female,45,165,165,right,same,valid,anti,2,2.0241508334984246,1,j,1,same,1.2748758588531928,0.5572136550890536,0,0,0,0.3874903698815615,0,0,6.258676730099978
13,26,female,46,135,135,right,same,valid,anti,2,1.7774462429224513,1,f,0,change,0.8652097521917312,0.5556155239211719,0,0,0,0.3875108970278234,0,0,5.593512714964163
13,26,female,47,15,325,left,change,valid,anti,1,1.5134407929654117,0,f,1,change,0.8858863655477762,0.5540588005629234,0,0,0,0.3874977468258294,0,0,5.151830989707378
13,26,female,48,135,135,left,same,valid,anti,2,2.5534889419614046,1,j,1,same,0.8838836854702095,0.5583317841871774,0,0,0,0.3874329580066842,0,0,6.282608500423521
13,26,female,49,105,55,right,change,valid,anti,2,1.5533314602325845,1,f,1,change,1.7673853735068406,0.5567919291794595,0,0,0,0.3874720878848166,0,0,6.410023728101805
13,26,female,50,165,355,right,change,catch,anti,1,1.4494194986109505,0,f,1,change,0.8142774026237021,0,0,0,0,0.3874653524180758,0,0,6.828876375882828
13,26,female,51,135,135,left,same,valid,clock,2,1.560156416882819,1,j,1,same,0.7089413699686702,0.5553042225103596,0,0,0,0.3874919735644653,0,0,5.49099499586373
13,26,female,52,105,125,left,same,catch,anti,1,1.3134556751465425,0,f,0,change,0.6246668347339437,0,0,0,0,0.3874525229475694,0,0,6.095941012667026
13,26,female,53,15,15,left,change,catch,clock,1,2.880197137616051,0,f,1,change,0.8200500220991671,0,0,0,0,0.3874352031671151,0,0,8.263619603683765
13,26,female,54,45,95,right,change,valid,clock,1,1.4402008838223992,0,f,1,change,1.1306363865551248,0.5538504683800219,0,0,0,0.3874384105329227,0,0,5.7639143607302685
13,26,female,55,45,45,left,same,valid,clock,2,1.4412051104918646,1,j,1,same,0.7091286802133254,0.5578508730936576,0,0,0,0.38749870903484407,0,0,5.6463707677976345
13,26,female,56,105,155,right,change,valid,clock,2,1.2254750271204102,1,f,1,change,0.8797144288546406,0.5564157122600691,0,0,0,0.38746503167931223,0,0,4.989621921969956
13,26,female,57,75,75,right,same,valid,clock,2,1.4894208200494177,1,j,1,same,0.7591883051682089,0.5550242071954955,0,0,0,0.38749165282570175,0,0,5.292371726161946
13,26,female,58,165,165,left,same,valid,anti,2,2.209443322932202,1,j,1,same,0.7976991630675911,0.5536605105342105,0,0,0,0.38743744832027005,0,0,5.92288879865373
13,26,female,1,45,95,right,change,valid,clock,1,3.128337666486914,0,f,1,change,1.1642348408604448,0.552214213548712,0,0,0,0.38742590180117986,0,0,7.536403938389412
13,26,female,2,45,45,right,same,catch,clock,1,1.3294270808255533,0,f,0,change,0.6334344936913112,0,0,0,0,0.38748844545989414,0,0,6.891771563612565
13,26,female,3,45,95,left,change,valid,clock,2,1.272256081327214,1,f,1,change,1.1780598764125898,0.5559880018263869,0,0,0,0.38750865187103045,0,0,5.631332705972454
13,26,female,4,165,355,right,change,catch,anti,1,5.553407474832056,0,f,1,change,1.1615993472369155,0,0,0,0,0.3873919037068845,0,0,11.742390040228202
13,26,female,5,75,75,right,same,valid,anti,2,1.0804042052441218,1,j,1,same,0.8334433460258879,0.5546818027103593,0,0,0,0.38746663536221604,0,0,4.697624495562195
13,26,female,6,45,45,left,same,valid,clock,2,1.5374854626097658,1,f,0,change,0.8958638434123714,0.5533077902310247,0,0,0,0.3874897284040344,0,0,5.361725589205889
13,26,female,7,105,125,left,same,catch,anti,1,1.2975006270426093,0,f,0,change,0.6420616699724633,0,0,0,0,0.3874547681043623,0,0,6.0960853441938525
13,26,female,8,45,75,right,change,catch,anti,1,1.0481316765326483,0,f,1,change,0.754873113346548,0,0,0,0,0.38747850262370775,0,0,6.610819989080483
13,26,female,9,75,125,left,change,valid,clock,2,1.2642623600695515,1,f,1,change,0.8170591521884489,0.5519404559824891,0,0,0,0.38748203072464094,0,0,5.284394362475723
13,26,female,10,135,135,right,same,valid,anti,2,1.3614622643617622,1,j,1,same,0.7851461693462625,0.5505647076280119,0,0,0,0.3874679183099943,0,0,5.2982591693798895
13,26,female,11,135,85,left,change,valid,anti,1,1.5773703566119366,0,f,1,change,1.1666583275109588,0.5491687517454783,0,0,0,0.38756991258560447,0,0,5.664523824645585
13,26,female,12,75,75,right,same,valid,clock,2,1.1134574071256793,1,j,1,same,0.9357134563797445,0.5529026933722884,0,0,0,0.3874191663271631,0,0,5.400595672235795
13,26,female,13,45,355,right,change,valid,anti,2,1.377433670044411,1,f,1,change,1.2691282568412134,0.551603725529597,0,0,0,0.3874813892507518,0,0,5.6179788326589915
13,26,female,14,105,105,right,same,valid,clock,3,1.2494545872068556,1,j,1,same,0.8852529105242866,0.5502924910846033,0,0,0,0.38746727683610516,0,0,5.568726822759345
13,26,female,15,165,165,left,same,valid,anti,3,1.7694236553616065,1,j,1,same,0.7730932041631604,0.5489675088538631,0,0,0,0.3874887661950197,0,0,5.574341960509628
13,26,female,16,105,155,left,change,valid,clock,3,1.0574481160256255,1,f,1,change,0.901044382906548,0.5476960498680994,0,0,0,0.3874207700137049,0,0,4.859987516927504
13,26,female,17,165,115,left,change,valid,anti,3,1.265477310764254,1,f,1,change,0.6758910547177948,0.5464719883593436,0,0,0,0.38747529525426216,0,0,5.103088630461571
13,26,female,18,135,185,left,change,valid,clock,2,1.0414231473114341,1,f,1,change,1.1725698259870114,0.5452826802002945,0,0,0,0.38747721967229154,0,0,5.111818121753458
13,26,female,19,105,75,right,change,catch,anti,1,0.8174494887789479,0,f,1,change,0.8038531385063834,0,0,0,0,0.3874862003031012,0,0,6.6263988130158396
13,26,female,20,105,105,left,same,valid,clock,2,1.1915138195836334,1,j,1,same,0.7750525847841345,0.5441164947906268,0,0,0,0.38756670521979686,0,0,5.14696348925645
13,26,female,21,45,355,left,change,valid,anti,2,1.185400898448279,1,f,1,change,0.9327479246749135,0.5428814003785614,0,0,0,0.3874733708325948,0,0,5.10936416511322
13,26,female,22,135,135,left,same,valid,anti,2,2.641329428042809,1,f,0,change,2.757600016935612,0.5416457143785739,0,0,0,0.3874329580066842,0,0,8.495024411273334
13,26,female,23,15,65,right,change,valid,clock,1,1.4974697080215265,0,f,1,change,1.026770290289278,0.5403972218989047,0,0,0,0.38742686401019455,0,0,5.663580858690693
13,26,female,24,105,105,left,same,valid,anti,2,1.40942362970236,1,j,1,same,0.9063881773872708,0.5437089355698057,0,0,0,0.38751025555393426,0,0,5.551479847148585
13,26,female,25,75,215,left,change,catch,clock,1,1.1375113781323307,0,f,1,change,1.0195675057802873,0,0,0,0,0.38749742608706583,0,0,6.626517806340416
13,26,female,26,165,165,left,same,valid,clock,3,1.4161886085857986,1,j,1,same,0.8475599312587292,0.5425320686307125,0,0,0,0.3875391218607547,0,0,4.973138620487589
13,26,female,27,105,155,right,change,valid,clock,3,1.7694621437658498,1,f,1,change,0.9724894493665488,0.5413507232057614,0,0,0,0.3875468195437861,0,0,5.81073775218465
13,26,female,28,15,15,left,same,valid,clock,2,1.265426955098519,1,j,1,same,0.9237015455037181,0.5401538085254971,0,0,0,0.3874409764284792,0,0,5.0145454102275835
13,26,female,29,45,75,left,same,catch,anti,1,0.9294648636132479,0,f,0,change,0.7985584167399793,0,0,0,0,0.3875525928015122,0,0,6.205265406428225
13,26,female,30,15,15,left,same,valid,anti,2,1.5676539584383136,1,j,1,same,0.5503688151547976,0.5389451294400998,0,0,0,0.38751185924047604,0,0,5.491407784025796
13,26,female,31,165,115,right,change,valid,anti,2,2.5214508717945137,1,j,0,same,0.816376303715515,0.5377865516782852,0,0,0,0.3875073689268902,0,0,6.119037263833889
13,26,female,32,15,325,right,change,valid,anti,2,3.4494445160744363,1,f,1,change,1.1372891075880034,0.5366702061083882,0,0,0,0.3875041615610826,0,0,7.810550121208507
13,26,female,33,15,325,left,change,valid,anti,2,1.3854585027656867,1,f,1,change,0.7415724823295022,0.5355855491540881,0,0,0,0.3874595791567117,0,0,5.553281746040739
13,26,female,34,135,185,right,change,valid,clock,3,1.1534003544802545,1,f,1,change,1.7421494876871293,0.5345228501231312,0,0,0,0.38745605105214054,0,0,5.797839966489846
13,26,female,35,75,25,left,change,valid,anti,2,1.8254983767510566,1,f,1,change,1.026050236352603,0.5333995938551392,0,0,0,0.387434561693226,0,0,6.129709457432909
13,26,female,36,105,105,right,same,valid,anti,2,1.129473395209061,1,j,1,same,0.9288352574330929,0.532278808052995,0,0,0,0.3874733708362328,0,0,5.492903700083843
13,26,female,37,105,165,left,same,catch,clock,1,1.4974565578158945,0,f,0,change,0.6678838625157368,0,0,0,0,0.3874993505087332,0,0,6.641907395613089
13,26,female,38,15,15,left,change,catch,clock,1,1.0483991709625116,0,f,1,change,0.7111172478726075,0,0,0,0,0.38744161789873033,0,0,6.6579663624142995
13,26,female,39,165,215,right,change,valid,clock,2,1.2075920305906038,1,f,1,change,0.943888714620698,0.5311502884194987,0,0,0,0.3874643902054231,0,0,5.291393158429855
13,26,female,40,105,55,left,change,valid,anti,2,1.2334722764790058,1,f,1,change,0.6173954125661112,0.530003968703264,0,0,0,0.38742590180117986,0,0,4.705689099631854
13,26,female,41,135,135,right,same,valid,clock,2,0.8574581871580449,1,f,0,change,0.927129579558823,0.5288496952530922,0,0,0,0.3874999919826223,0,0,4.680758875907486
13,26,female,42,75,25,right,change,valid,anti,2,0.9774573404138209,1,f,1,change,0.6999238571042952,0.5277448122855174,0,0,0,0.3874862003031012,0,0,4.535665602463268
13,26,female,43,75,75,left,same,valid,anti,2,1.3294402310311852,1,j,1,same,0.9295229169583763,0.526678915621782,0,0,0,0.3875371974427253,0,0,5.106483949373796
13,26,female,44,105,55,right,change,valid,anti,2,0.7134682480245829,1,f,1,change,0.9428065489300934,0.5256424172233263,0,0,0,0.3874881247211306,0,0,4.531986110818252
13,26,female,45,15,15,right,same,valid,clock,1,0.9294270166792558,0,f,0,change,0.5810909025603905,0.5246264392320852,0,0,0,0.3875067274530011,0,0,4.694630418285669
13,26,female,46,135,135,left,same,valid,clock,2,1.329505340589094,1,j,1,same,0.7993317129694333,0.5274193112041664,0,0,0,0.38751410439726897,0,0,5.030047898821067
13,26,female,47,165,165,right,same,valid,anti,2,1.0494415652974567,1,j,1,same,0.708945860285894,0.5264062794847432,0,0,0,0.3875137836585054,0,0,4.517368855566019
13,26,female,48,75,125,right,change,valid,clock,2,1.3294835304914159,1,f,1,change,1.8334856832734658,0.5254188069241065,0,0,0,0.3875349522822944,0,0,6.439272992494807
13,26,female,49,135,135,right,same,catch,clock,1,1.0094418475455313,0,f,0,change,0.8893727736867731,0,0,0,0,0.3874647109405487,0,0,6.642129666157416
13,26,female,50,165,165,right,same,valid,clock,2,1.04050263292811,1,j,1,same,0.6203708871144045,0.5244488542708098,0,0,0,0.3875163495540619,0,0,4.971973063249607
13,26,female,51,45,45,left,same,valid,anti,2,0.6574464481927862,1,j,1,same,0.6789165641930595,0.5234216589053027,0,0,0,0.38750127492676256,0,0,4.322595067966176
13,26,female,52,15,65,left,change,valid,clock,2,0.85739756791736,1,f,1,change,1.4421618681226391,0.5223955877101448,0,0,0,0.3874967846168147,0,0,5.208005780958047
13,26,female,53,165,215,left,change,valid,clock,2,1.1054845337566803,1,f,1,change,1.0121482239846955,0.5213620525681072,0,0,0,0.3874531644214585,0,0,5.4036571042233845
13,26,female,54,135,85,right,change,valid,anti,2,0.7534198552712041,1,f,1,change,0.7149231097864686,0.5203125555696844,0,0,0,0.38743744832027005,0,0,4.861161734057532
13,26,female,55,45,45,right,same,valid,clock,3,2.1292979522222595,1,j,1,same,1.49563894282619,0.519242743028709,0,0,0,0.3875500269095937,0,0,6.592848148484336
13,26,female,56,15,15,right,same,valid,anti,2,1.297497098938038,1,j,1,same,0.5835528776187857,0.518210550447745,0,0,0,0.38746182430986664,0,0,4.832476324820163
13,26,female,57,75,75,left,same,valid,clock,2,1.1534507101423515,1,j,1,same,0.9435221125531825,0.5172170174844362,0,0,0,0.38744803263398353,0,0,5.0260746123421995
13,26,female,58,45,45,right,same,valid,anti,2,1.1774091016086459,1,j,1,same,0.9843326527297904,0.5162537234487453,0,0,0,0.3874765781984024,0,0,5.106388369829801
13,26,female,1,75,75,left,same,valid,clock,2,1.4633753947455261,1,j,1,same,0.8251709045616735,0.5153128884557234,0,0,0,0.38750384082231903,0,0,5.361152432691597
13,26,female,2,45,95,left,change,valid,clock,2,0.8814367850391136,1,f,1,change,0.7445575789752183,0.5143872379211727,0,0,0,0.3874473911600944,0,0,4.479891090639285
13,26,female,3,165,115,right,change,valid,anti,2,4.988732839781733,1,f,1,change,0.9951241603921517,0.5134056068399591,0,0,0,0.3874111479126441,0,0,8.961220685465378
13,26,female,4,15,65,right,change,valid,clock,1,1.2734081676244386,0,f,1,change,1.0397594859496166,0.5124241020925713,0,0,0,0.38749646387805115,0,0,5.421802784119791
13,26,female,5,105,105,left,same,valid,clock,2,0.9933761452703038,1,j,1,same,0.5667199731105939,0.5149968364367652,0,0,0,0.3874047331773909,0,0,4.855537294944952
13,26,female,6,45,75,left,same,catch,anti,1,0.8014065588104131,0,f,0,change,0.602009351401648,0,0,0,0,0.387434561689588,0,0,5.596821755698329
13,26,female,7,45,45,left,same,valid,clock,2,0.9124077641354233,1,j,1,same,0.6824279897955421,0.514048042443325,0,0,0,0.38751282144949073,0,0,4.960871082439553
13,26,female,8,135,135,left,same,valid,anti,2,1.0334858757196344,1,j,1,same,0.7198226839136623,0.5131041582720219,0,0,0,0.3874983882960805,0,0,4.574057787776837
13,26,female,9,75,25,right,change,valid,anti,2,0.9134318764845375,1,f,1,change,0.823722457535041,0.5121577724442464,0,0,0,0.38752468871098245,0,0,4.8427062224836845
13,26,female,10,135,185,left,change,valid,clock,2,0.7934506844831049,1,f,1,change,0.7948795665688522,0.5112016025275584,0,0,0,0.38752789607679006,0,0,4.364946427343966
13,26,female,11,15,65,left,change,valid,clock,2,0.9212748514837585,1,f,1,change,1.3981218299195461,0.5102283847054877,0,0,0,0.387463748731534,0,0,5.452068463178875
13,26,female,12,75,75,right,same,valid,clock,2,1.0574388146596903,1,j,1,same,1.7018595032059238,0.509236252668397,0,0,0,0.3874313543237804,0,0,5.88574203402095
13,26,female,13,105,105,right,same,valid,anti,2,0.8894558444953873,1,j,1,same,0.8681727180082817,0.5082802928999429,0,0,0,0.38743424095082446,0,0,5.1322801622409315
13,26,female,14,165,115,left,change,valid,anti,2,1.2254310861899285,1,f,1,change,1.074491423820291,0.5073596910567683,0,0,0,0.3874977468258294,0,0,5.374597395231831
13,26,female,15,105,165,left,same,catch,clock,1,0.96146123800645,0,f,0,change,0.4093655763535935,0,0,0,0,0.38744322158163413,0,0,6.4392405980834155
13,26,female,16,75,75,left,same,valid,anti,2,2.9919151895119285,1,j,1,same,0.6505313645211572,0.5064671858708473,0,0,0,0.38754008406976936,0,0,7.010644610247255
13,26,female,17,15,15,right,same,valid,anti,2,1.2734652587641904,1,j,1,same,0.8744055946735898,0.5055960540095338,0,0,0,0.38747112567943987,0,0,4.940869299145561
13,26,female,18,105,55,right,change,valid,anti,2,1.6335066594547243,1,f,1,change,1.0264787406085816,0.504740001648706,0,0,0,0.3874554095782514,0,0,5.522370103233698
13,26,female,19,135,135,right,same,catch,clock,1,1.3454283150203992,0,f,0,change,0.5993081067499588,0,0,0,0,0.3875083311359049,0,0,6.829247788999055
13,26,female,20,165,165,left,same,valid,clock,2,3.743748680968565,1,j,1,same,0.5270207856665365,0.5038340306006065,0,0,0,0.38747272936234367,0,0,7.428158502953011
13,26,female,21,45,45,right,same,valid,clock,2,1.3614436616335297,1,j,1,same,0.7562089817838569,0.5029304092290653,0,0,0,0.38745925841794815,0,0,4.985597959090228
13,26,female,22,75,25,left,change,valid,anti,2,1.0093218920119398,1,f,1,change,1.818087754847511,0.5020223590777994,0,0,0,0.38745091926466557,0,0,5.695045772339654
13,26,female,23,105,105,right,same,valid,clock,2,1.9294135457348602,1,j,1,same,0.5081771826626209,0.5011031801666526,0,0,0,0.387479785567848,0,0,6.008199634234188
13,26,female,24,135,185,right,change,valid,clock,2,1.0094841847931093,1,f,1,change,0.8056316236143175,0.5001661545213402,0,0,0,0.38746406946665957,0,0,4.552554635894921
13,26,female,25,45,75,right,change,catch,anti,1,2.4334346219875442,0,f,1,change,0.5169518978291308,0,0,0,0,0.38743424095446244,0,0,7.546766621057031
13,26,female,26,105,155,right,change,valid,clock,2,1.0645594905690814,1,f,1,change,0.9993671864503995,0.49921048250495387,0,0,0,0.38746471094418666,0,0,5.324189129463775
13,26,female,27,75,125,left,change,valid,clock,1,0.9854311759918346,0,f,1,change,0.6795250017457874,0.4982904661798639,0,0,0,0.3874903698815615,0,0,5.068118385206617
13,26,female,28,105,75,right,change,catch,anti,1,0.9294873151848151,0,f,1,change,0.6204173939368047,0,0,0,0,0.38748652104186476,0,0,5.986723744972551
13,26,female,29,165,165,right,same,valid,anti,2,0.9283445302535256,1,j,1,same,1.0066010824230034,0.500896151752772,0,0,0,0.3874393727382994,0,0,5.19712350480404
13,26,female,30,105,125,left,same,catch,anti,1,0.8254618127648428,0,f,0,change,0.524628410475998,0,0,0,0,0.38749710535194026,0,0,6.17406317615314
13,26,female,31,135,135,right,same,valid,clock,1,0.8484791626979131,0,f,0,change,0.6968098242941778,0.4999850224116196,0,0,0,0.3875073689268902,0,0,4.805837857325969
13,26,female,32,45,95,right,change,valid,clock,1,1.3854347682463413,0,f,1,change,0.7024320182463271,0.5024200180878562,0,0,0,0.38744963631688734,0,0,4.99182089291935
13,26,female,33,45,355,left,change,valid,anti,2,0.8974537353351479,1,f,1,change,0.8581137730107002,0.5046382166471035,0,0,0,0.38745444736559875,0,0,4.630620349718811
13,26,female,34,45,355,right,change,valid,anti,2,0.8894908048023353,1,f,1,change,0.5944332293474872,0.5038215689527628,0,0,0,0.38750063345287344,0,0,4.500296360729408
13,26,female,35,15,15,left,change,catch,clock,1,0.7294662748572591,0,f,1,change,0.8388955495211121,0,0,0,0,0.38753431081204326,0,0,5.799622941911366
13,26,female,36,105,155,left,change,valid,clock,1,1.3844112973747542,0,f,1,change,1.3846685282223916,0.5030063891948419,0,0,0,0.38758530794802937,0,0,5.913550549070351
13,26,female,37,135,135,right,same,valid,anti,2,1.0734650663180219,1,f,0,change,0.6663924367712752,0.5051370530813869,0,0,0,0.3875561209060834,0,0,4.919553136773175
13,26,female,38,135,85,right,change,valid,anti,2,0.8494221286528045,1,f,1,change,0.6122039680267335,0.5043941338765396,0,0,0,0.387434561693226,0,0,4.588408831546985
13,26,female,39,15,325,left,change,valid,anti,2,1.0254122910191654,1,f,1,change,0.6100694651613594,0.5036048038849192,0,0,0,0.38745123999979114,0,0,4.441200940913404
13,26,female,40,165,215,left,change,valid,clock,2,0.825455077294464,1,f,1,change,0.829768665433221,0.5028152700851035,0,0,0,0.3874377690553956,0,0,4.9694578458947944
13,26,female,41,165,165,right,same,valid,clock,2,0.8653335565650195,1,j,1,same,1.226605303316319,0.5020203354211312,0,0,0,0.38742269443173427,0,0,4.879060767420015
13,26,female,42,135,85,left,change,valid,anti,3,0.9374682069756091,1,f,1,change,0.591006157501397,0.501214836235355,0,0,0,0.38744867410423467,0,0,4.7470436092880846
13,26,female,43,105,55,left,change,valid,anti,3,0.8894484675511194,1,f,1,change,0.7523229356920638,0.5003935775632793,0,0,0,0.38749902976996964,0,0,4.499236967345496
13,26,female,44,75,125,right,change,valid,clock,2,1.7294710859059705,1,f,1,change,0.8246891580092779,0.4995506245542721,0,0,0,0.38753334860302857,0,0,5.461097843301104
13,26,female,45,75,215,left,change,catch,clock,1,0.841454066332517,0,f,1,change,0.4712170868006069,0,0,0,0,0.3874371275851445,0,0,5.550109980620618
13,26,female,46,75,75,right,same,valid,anti,2,0.7841906946559902,1,j,1,same,0.8902679498678481,0.4987295215802888,0,0,0,0.38748684177335235,0,0,4.973112961546576
13,26,female,47,15,15,left,same,valid,anti,3,0.7854640194345848,1,j,1,same,0.790238506240712,0.49794009528076405,0,0,0,0.38750127493040054,0,0,4.4187509742369
13,26,female,48,15,15,left,same,valid,clock,3,1.3614840744594403,1,j,1,same,0.7890488937482587,0.49717690489645777,0,0,0,0.38745765473504434,0,0,5.042881857913017
13,26,female,49,45,45,left,same,valid,anti,2,0.801440236165945,1,j,1,same,0.6647406426673115,0.49643491446255933,0,0,0,0.3874765781984024,0,0,4.410694067846634
13,26,female,50,165,165,left,same,valid,anti,2,0.7294569734913239,1,j,1,same,0.6630503601554665,0.495709422272343,0,0,0,0.3874554095782514,0,0,4.266309943286615
13,26,female,51,165,215,right,change,valid,clock,3,1.4814364001540525,1,f,1,change,1.2040405128936982,0.4949959980203264,0,0,0,0.3874595791530737,0,0,5.590511260743369
13,26,female,52,45,45,right,same,valid,anti,2,1.1854817241001,1,j,1,same,0.6759032427107741,0.49424147326309525,0,0,0,0.38746888052264694,0,0,5.180326202073047
13,26,female,53,45,45,right,same,catch,clock,1,0.841507308628934,0,f,0,change,0.46715046593453735,0,0,0,0,0.38757825173888705,0,0,5.815089828734926
13,26,female,54,135,135,left,same,valid,clock,2,0.728341451180313,1,j,1,same,0.8228471670263389,0.49349020497630264,0,0,0,0.3874509192610276,0,0,4.723932283497561
13,26,female,55,165,355,right,change,catch,anti,1,0.849437844750355,0,f,1,change,0.5931797902521794,0,0,0,0,0.387421411487594,0,0,5.939856091848924
13,26,female,56,15,325,right,change,valid,anti,2,0.9123176371213049,1,f,1,change,0.5605704879890254,0.4927373901177591,0,0,0,0.387410506435117,0,0,4.770488501268119
13,26,female,57,15,15,right,same,valid,clock,3,1.265447482252057,1,j,1,same,0.6563876962827635,0.49197829320780195,0,0,0,0.38743905200681183,0,0,4.682593169203756
13,26,female,58,105,105,left,same,valid,anti,2,0.8414768386392097,1,j,1,same,0.7729565703230037,0.4912081883169834,0,0,0,0.3874012050728197,0,0,4.4735642381128855
13,26,female,1,45,45,right,same,catch,clock,1,1.0638994143992022,0,f,0,change,0.7059729516295192,0,0,0,0,0.38747561598938773,0,0,6.194861990195932
13,26,female,2,165,165,right,same,valid,clock,1,0.8724516665788542,0,f,0,change,0.4834884736847016,0.4904223027356123,0,0,0,0.3874945394563838,0,0,4.289196111902129
13,26,female,3,45,45,right,same,valid,anti,2,0.7694759354417329,1,j,1,same,0.5786144943485851,0.49251986826647404,0,0,0,0.38745989989183727,0,0,4.1974381475265545
13,26,female,4,45,355,right,change,valid,anti,2,0.7854239273437997,1,f,1,change,0.792250487680576,0.4917801375490006,0,0,0,0.38749967124749674,0,0,4.4163528257886355
13,26,female,5,45,355,left,change,valid,anti,2,0.6973861881779158,1,f,1,change,1.4696502879269246,0.491028370001361,0,0,0,0.3874871625121159,0,0,5.304021525280405
13,26,female,6,75,125,right,change,valid,clock,2,0.649504365548637,1,f,1,change,1.0954390597034944,0.49026003284691644,0,0,0,0.3875343108084053,0,0,4.846774447032658
13,26,female,7,15,65,right,change,valid,clock,2,0.6894572557393985,1,f,1,change,0.5991130988222721,0.4894714356554239,0,0,0,0.38740184654670884,0,0,4.321675195056741
13,26,female,8,75,75,right,same,valid,clock,2,0.6414201965344546,1,f,0,change,1.2748835565362242,0.48870714491966194,0,0,0,0.3875378389166144,0,0,4.855609460708365
13,26,female,9,75,75,left,same,valid,clock,3,0.9934624234447256,1,j,1,same,0.5518560713244369,0.48797155820743726,0,0,0,0.3875195569198695,0,0,4.5547343626421934
13,26,female,10,105,105,right,same,valid,anti,3,0.7774488088180078,1,j,1,same,0.7131330781521683,0.48725994313809945,0,0,0,0.3874669561009796,0,0,4.3343481443153
13,26,female,11,15,15,left,change,catch,clock,1,0.929444336463348,0,f,1,change,0.4290546413467382,0,0,0,0,0.38753206565525034,0,0,5.815050057379267
13,26,female,12,45,75,left,same,catch,anti,1,0.832237375961995,0,f,0,change,0.25906738742560265,0,0,0,0,0.3874695219928981,0,0,5.908761949845939
13,26,female,13,15,325,right,change,valid,anti,2,0.672469435394305,1,f,1,change,0.6195459522714373,0.4865679055930952,0,0,0,0.3875234057632042,0,0,4.733967493975797
13,26,female,14,45,45,left,same,valid,anti,2,0.9374771876027808,1,j,1,same,0.6710889845526253,0.48589133269401047,0,0,0,0.38752949975969386,0,0,4.725434935025987
13,26,female,15,15,15,right,same,valid,clock,2,0.7692414769007883,1,j,1,same,2.6340390824116184,0.4852263417136096,0,0,0,0.3875051237664593,0,0,6.134071476819372
13,26,female,16,165,165,left,same,valid,anti,3,0.8574578664192813,1,j,1,same,0.5469112733189831,0.48456923387885337,0,0,0,0.3875519513312611,0,0,4.273587459450937
13,26,female,17,45,45,left,same,valid,clock,2,0.6734553800706635,1,j,1,same,0.5370219980468391,0.48387085023679943,0,0,0,0.38749229429959087,0,0,3.9821038532681996
13,26,female,18,75,75,left,same,valid,anti,2,0.9051761133232503,1,j,1,same,0.4755043745281,0.48317251752115375,0,0,0,0.38744482526453794,0,0,4.355050095869956
13,26,female,19,15,15,right,same,valid,anti,2,0.7374186210763582,1,j,1,same,0.7175970918142411,0.48247008920292533,0,0,0,0.3874653524144378,0,0,4.233198367321165
13,26,female,20,135,135,right,same,valid,clock,2,0.6735105467851099,1,j,1,same,0.5253773307122174,0.48175943889192907,0,0,0,0.38754906470057904,0,0,4.2286499999027
13,26,female,21,135,135,right,same,valid,anti,2,0.7453860419227567,1,j,1,same,0.8905020876773051,0.4810364138393648,0,0,0,0.3875721577423974,0,0,4.455805366695131
13,26,female,22,105,105,left,same,valid,anti,3,0.7774760714346485,1,j,1,same,0.3816606592699827,0.4802967890748526,0,0,0,0.3874457874771906,0,0,4.360496846835304
13,26,female,23,75,125,left,change,valid,clock,2,0.6654096994607244,1,f,1,change,1.2303909588190436,0.47953411078060304,0,0,0,0.3874319957976695,0,0,4.535034392596572
13,26,female,24,105,125,left,same,catch,anti,1,0.8894834278544295,0,f,0,change,0.33182105969899567,0,0,0,0,0.3874435423203977,0,0,5.877735804031545
13,26,female,25,15,15,left,same,valid,clock,1,0.8243254425688065,0,f,0,change,0.9427472126371867,0.4787910934734728,0,0,0,0.38750223713941523,0,0,5.134941635540599
13,26,female,26,105,155,right,change,valid,clock,2,0.8094204864792118,1,f,1,change,1.1141415385500295,0.48087286669311713,0,0,0,0.38751987765863305,0,0,5.017337102632155
13,26,female,27,165,165,right,same,valid,anti,2,0.8174222261586692,1,j,1,same,0.5427615816442994,0.48014811496940585,0,0,0,0.38749453946002177,0,0,4.496426351470291
13,26,female,28,135,135,left,same,valid,clock,2,0.8174401874130126,1,j,1,same,0.6106413387315115,0.47940396602596824,0,0,0,0.387495822404162,0,0,4.266514894050488
13,26,female,29,135,85,right,change,valid,anti,3,0.6813769355685508,1,f,1,change,1.3208772020989272,0.47868535466442536,0,0,0,0.38743905200317386,0,0,5.038703941405402
13,26,female,30,75,75,right,same,valid,anti,1,0.9214900658225815,0,f,0,change,0.2923210497574473,0.47799295459137553,0,0,0,0.387442580107745,0,0,4.222615659266012
13,26,female,31,75,215,left,change,catch,clock,1,0.7774430355530058,0,f,1,change,0.6639503473925288,0,0,0,0,0.3875371974390873,0,0,5.721529965470836
13,26,female,32,75,25,left,change,valid,anti,2,0.9600961825271952,1,f,1,change,0.7797260395236663,0.48000507207639126,0,0,0,0.3875048030313337,0,0,5.090897748490534
13,26,female,33,15,65,left,change,valid,clock,3,0.841491271788982,1,f,1,change,0.5662943554816593,0.4792804406072497,0,0,0,0.38746503167931223,0,0,4.3635149793663
13,26,female,34,105,55,left,change,valid,anti,3,0.8574857705134491,1,f,1,change,0.5112536892738717,0.4785847878710764,0,0,0,0.38747786114618066,0,0,4.2102323352664826
13,26,female,35,135,185,right,change,valid,clock,2,0.9614298058077111,1,f,1,change,0.7017183790485433,0.4779139976385041,0,0,0,0.3875484232266899,0,0,4.5649321866367245
13,26,female,36,135,135,left,same,valid,anti,2,0.6734486446002848,1,j,1,same,1.7840954358543968,0.47726412919757655,0,0,0,0.3875121799756016,0,0,5.2646000958338846
13,26,female,37,105,75,right,change,catch,anti,2,1.497483178962284,1,f,1,change,0.5940329499244399,0,0,0,0,0.38745925842158613,0,0,6.579523462212819
13,26,female,38,15,325,left,change,valid,anti,2,0.552486318974843,1,f,1,change,0.7737404508661712,0.47663150636855844,0,0,0,0.38746567315320135,0,0,4.709437549674476
13,26,female,39,165,115,right,change,valid,anti,2,0.7774626004938909,1,f,1,change,0.6965468201851763,0.4760126743712634,0,0,0,0.3874711256758019,0,0,4.500702092678694
13,26,female,40,15,15,left,same,valid,anti,2,0.7933942348245182,1,j,1,same,0.8805695129485684,0.47540436089302224,0,0,0,0.38747625746691483,0,0,4.774775468260486
13,26,female,41,105,105,left,same,valid,clock,3,0.9294651843483734,1,j,1,same,0.5750873526449141,0.4748034406431745,0,0,0,0.3874772196759295,0,0,4.376251434496226
13,26,female,42,165,215,left,change,valid,clock,3,0.8174539790925337,1,f,1,change,0.7165800356815453,0.474165349922834,0,0,0,0.38750063345287344,0,0,4.486731121916819
13,26,female,43,45,95,right,change,valid,clock,3,1.1374889265644015,1,f,1,change,0.6074188969068928,0.4735281238196584,0,0,0,0.38744771189885796,0,0,4.68065239131829
13,26,female,44,45,95,left,change,valid,clock,3,0.7854649816435995,1,f,1,change,0.675270108426048,0.472888250650494,0,0,0,0.38751987765863305,0,0,4.399199826035328
13,26,female,45,165,115,left,change,valid,anti,2,2.2814474334991246,1,f,1,change,0.7930074263385904,0.472242239560009,0,0,0,0.38745027779077645,0,0,5.798875946093176
13,26,female,46,165,165,left,same,valid,clock,3,1.0014760303820367,1,j,1,same,0.5322715664951829,0.47158658407757015,0,0,0,0.38741050643875496,0,0,4.665302894132765
13,26,female,47,105,105,right,same,valid,clock,3,0.8254563602386042,1,j,1,same,0.8153630964188778,0.4709177261588694,0,0,0,0.3874393727419374,0,0,4.872445251847239
13,26,female,48,135,135,right,same,catch,clock,1,0.8334994749566249,0,f,0,change,0.41727815122067113,0,0,0,0,0.38751602881529834,0,0,5.690406957164669
13,26,female,49,45,45,right,same,valid,clock,3,0.9682165947888279,1,j,1,same,0.6128954763953516,0.47023202014567606,0,0,0,0.3874951809302729,0,0,4.868661200027418
13,26,female,50,135,185,left,change,valid,clock,1,0.8735396055308229,0,f,1,change,1.0096583448321326,0.46952237663414886,0,0,0,0.38753751817785087,0,0,4.672167622142297
13,26,female,51,105,155,left,change,valid,clock,2,1.3774538764555473,1,f,1,change,0.772674001276755,0.47142647441832963,0,0,0,0.3874788233588333,0,0,5.342459575946123
13,26,female,52,165,215,right,change,valid,clock,2,0.9134030101777171,1,f,1,change,1.8544855992440716,0.4707701984829219,0,0,0,0.38744129716360476,0,0,5.8378566832871
13,26,female,53,165,355,right,change,catch,anti,1,0.9294831456063548,0,f,1,change,0.43342147178191226,0,0,0,0,0.3873819608706981,0,0,5.986964618252387
13,26,female,54,105,55,right,change,valid,anti,2,0.9044262308743782,1,f,1,change,0.673574694126728,0.470096623274204,0,0,0,0.3875371974390873,0,0,4.906300937000196
13,26,female,55,105,165,left,same,catch,clock,1,1.3535272379267553,0,f,0,change,1.065952450142504,0,0,0,0,0.38752308502444066,0,0,6.595060911109613
13,26,female,56,45,75,right,change,catch,anti,1,1.3363556354415778,0,f,1,change,0.632505960893468,0,0,0,0,0.3875115385017125,0,0,6.158413148667023
13,26,female,57,75,25,right,change,valid,anti,1,0.856472563216812,0,f,1,change,0.39249193828436546,0.4694026337338113,0,0,0,0.38749325650860555,0,0,4.482732176500576
13,26,female,58,135,85,left,change,valid,anti,2,1.0094553184899269,1,f,1,change,0.7054446982547233,0.47127258387314713,0,0,0,0.38751987765863305,0,0,4.548455299885973
13,26,female,1,105,155,left,change,valid,clock,2,1.0244981913638185,1,f,1,change,0.6748589239541616,0.4706280192394884,0,0,0,0.38746503167931223,0,0,5.017162621854368
13,26,female,2,45,75,right,change,catch,anti,1,0.8814476900843147,0,f,1,change,0.41910635052408907,0,0,0,0,0.3875073689268902,0,0,6.002313153217983
13,26,female,3,105,105,right,same,valid,anti,3,0.9362263143957534,1,j,1,same,0.5440826961894345,0.46996473442763753,0,0,0,0.38744867410787265,0,0,4.9535573230277805
13,26,female,4,45,45,left,same,valid,anti,2,0.9053704797770479,1,j,1,same,0.9155522669352649,0.46928847788066663,0,0,0,0.3874627865225193,0,0,4.670700251648668
13,26,female,5,105,105,left,same,valid,clock,2,1.0812952118503745,1,j,1,same,0.6561307861702517,0.4686387152528433,0,0,0,0.387516991027951,0,0,4.781187316017167
13,26,female,6,165,215,right,change,valid,clock,3,1.0574574173915607,1,f,1,change,0.7089615763834445,0.46801174770595294,0,0,0,0.38755323427540134,0,0,4.894166825430148
13,26,female,7,135,185,right,change,valid,clock,2,0.8894981817466032,1,f,1,change,0.6234566950915905,0.4674041367894842,0,0,0,0.38749325650860555,0,0,4.690261021954939
13,26,female,8,135,135,left,same,valid,anti,3,2.3853834503715916,1,j,1,same,0.8720719143057067,0.4668126657600312,0,0,0,0.38748331367241917,0,0,6.001233553422935
13,26,female,9,15,65,left,change,valid,clock,2,0.9134761381501448,1,f,1,change,0.6141094648774015,0.46623430473445504,0,0,0,0.3874903698779235,0,0,4.921241815602116
13,26,female,10,75,215,left,change,catch,clock,1,0.881486819966085,0,f,1,change,0.2913796874854597,0,0,0,0,0.38751410439726897,0,0,5.409449930109986
13,26,female,11,135,135,right,same,valid,anti,2,0.8244283990534313,1,j,1,same,0.8575470312280231,0.4656661790695412,0,0,0,0.3874910113554506,0,0,4.8553618519617885
13,26,female,12,45,95,right,change,valid,clock,1,0.7774587516541942,0,f,1,change,0.5742078925613896,0.4651055404360212,0,0,0,0.3874983882960805,0,0,4.306351036077103
13,26,female,13,15,325,left,change,valid,anti,2,1.2254965164793248,1,f,1,change,1.0080424732404936,0.4667738718335382,0,0,0,0.3875115385017125,0,0,5.111769369770627
13,26,female,14,15,15,left,same,valid,anti,2,0.8334558547612687,1,j,1,same,0.7369606090396701,0.46621127477579216,0,0,0,0.3875115385017125,0,0,4.985547282689367
13,26,female,15,75,125,right,change,valid,clock,1,0.7054020402720198,0,f,1,change,0.928944628652971,0.46565851449089607,0,0,0,0.3874938979824947,0,0,4.679967618420051
13,26,female,16,165,115,right,change,valid,anti,2,0.9294369595190801,1,f,1,change,0.7793883037593332,0.46729602657464847,0,0,0,0.3874361653761298,0,0,4.7826213298903895
13,26,female,17,135,135,right,same,catch,clock,1,0.9135024385614088,0,f,0,change,0.5487776402878808,0,0,0,0,0.3874685597802454,0,0,5.830632409419195
13,26,female,18,75,75,right,same,valid,clock,1,0.8795207038747321,0,f,0,change,0.4342483310465468,0.46673635086825116,0,0,0,0.3874012050728197,0,0,4.667944802491547
13,26,female,19,15,325,right,change,valid,anti,2,0.7854598498561245,1,f,1,change,0.5826907373157155,0.4683801421850061,0,0,0,0.38756702595492243,0,0,4.146276791940181
13,26,female,20,75,75,left,same,valid,anti,2,1.017450001956604,1,j,1,same,0.6500274871359579,0.4678041248231426,0,0,0,0.3874971053483023,0,0,4.6109441141925345
13,26,female,21,135,85,right,change,valid,anti,2,0.7454075312816713,1,f,1,change,0.8467940119735431,0.4672450129897772,0,0,0,0.38753431081204326,0,0,4.743979932143702
13,26,female,22,45,75,left,same,catch,anti,1,0.84148100821767,0,f,0,change,0.20552808980210102,0,0,0,0,0.3874695219928981,0,0,5.394013192544662
13,26,female,23,45,45,left,same,valid,clock,1,0.8964046055225481,0,f,0,change,0.5482320671289926,0.4667000609875247,0,0,0,0.3875468195437861,0,0,4.745220862514543
13,26,female,24,105,165,left,same,catch,clock,1,0.9134710063626699,0,f,0,change,0.3864252032362856,0,0,0,0,0.38744482526453794,0,0,5.721639978164603
13,26,female,25,15,15,right,same,valid,clock,1,0.9522137569110782,0,f,0,change,0.44214807644311804,0.4683011103340484,0,0,0,0.3874461082123162,0,0,4.6586973213998135
13,26,female,26,105,105,right,same,valid,clock,1,2.369409158058261,0,f,0,change,0.6024404215495451,0.46998415648958314,0,0,0,0.3874756159930257,0,0,5.680646618056926
13,26,female,27,45,45,right,same,catch,clock,1,1.6654812237502483,0,f,0,change,0.5260332373072742,0,0,0,0,0.3875285375506792,0,0,6.766130972195242
13,26,female,28,15,15,right,same,valid,anti,2,1.2317143185209716,1,j,1,same,0.6118675152065407,0.4715867103739647,0,0,0,0.3874525229475694,0,0,4.949125703777099
13,26,female,29,165,355,right,change,catch,anti,1,1.1615159556895378,0,f,1,change,0.3215956523490604,0,0,0,0,0.3874563717872661,0,0,6.080434995968972
13,26,female,30,135,185,left,change,valid,clock,2,0.9281835204164963,1,f,1,change,0.5358506675511308,0.4710285244162028,0,0,0,0.3874839551463083,0,0,4.293046556220361
13,26,female,31,135,135,right,same,valid,clock,3,0.9774608685147541,1,j,1,same,0.5074398089454917,0.4704562603426767,0,0,0,0.38750640671423753,0,0,4.337649166631309
13,26,female,32,165,115,left,change,valid,anti,2,0.745377061295585,1,f,1,change,0.6921835178509355,0.469864589515061,0,0,0,0.3874063368602947,0,0,4.263670280088263
13,26,female,33,75,75,left,same,valid,clock,2,1.201461789671157,1,j,1,same,0.7246860147897678,0.4692718914670442,0,0,0,0.3874903698815615,0,0,4.835834117537161
13,26,female,34,45,45,right,same,valid,anti,2,0.8414617640155484,1,j,1,same,0.7278561765233462,0.4687021721180933,0,0,0,0.3874531644214585,0,0,4.478557467362407
13,26,female,35,165,165,right,same,valid,clock,3,0.8654968115588417,1,j,1,same,0.5590206881570339,0.4681525434563879,0,0,0,0.38743905200317386,0,0,4.304144688183442
13,26,female,36,165,215,left,change,valid,clock,3,1.7934333647026506,1,f,1,change,0.8047803883600864,0.4676203161883614,0,0,0,0.38750063345287344,0,0,5.5253064479002205
13,26,female,37,45,45,right,same,valid,clock,3,0.8574655641023128,1,j,1,same,0.5147853212911286,0.46710297296522907,0,0,0,0.38748652104186476,0,0,4.281623197217414
13,26,female,38,75,25,left,change,valid,anti,3,1.5134703007424832,1,f,1,change,0.6083397320326185,0.4665981441908369,0,0,0,0.38747529525426216,0,0,4.894194088054064
13,26,female,39,15,15,left,same,valid,clock,2,0.8254816984408535,1,j,1,same,0.606027541020012,0.466103586037402,0,0,0,0.3875147458675201,0,0,4.55429174596793
13,26,female,40,45,95,left,change,valid,clock,1,1.1054659310284478,0,f,1,change,0.26284598671554704,0.465617160340425,0,0,0,0.3875365559651982,0,0,4.029715936318098
13,26,female,41,105,105,left,same,valid,anti,3,0.9053858751394728,1,j,1,same,0.5733178481641517,0.46705899723975663,0,0,0,0.3874531644214585,0,0,4.763777726890112
13,26,female,42,105,55,left,change,valid,anti,3,1.0974580973488628,1,f,1,change,0.5988321334552893,0.4665663449799564,0,0,0,0.38744450452941237,0,0,4.36353133693774
13,26,female,43,75,25,right,change,valid,anti,2,0.8255092817998957,1,f,1,change,0.5513528354094888,0.4660835779010176,0,0,0,0.3875019164006517,0,0,4.54724932982208
13,26,female,44,15,65,right,change,valid,clock,3,2.465312323794933,1,f,1,change,1.046870539754309,0.4656086527583109,0,0,0,0.3874525229475694,0,0,6.310296739196929
13,26,female,45,75,75,right,same,valid,anti,1,1.377423406469461,0,f,0,change,0.6422018319208291,0.46513960852605074,0,0,0,0.3874464289510797,0,0,5.2626968441436475
13,26,female,46,105,55,right,change,valid,anti,1,1.1294320201704977,0,f,1,change,1.2743668496805185,0.46653556163286075,0,0,0,0.38753751817785087,0,0,5.259456441064685
13,26,female,47,75,125,left,change,valid,clock,2,0.8811503671458922,1,f,1,change,0.708942973655212,0.467950816787873,0,0,0,0.38751185924047604,0,0,5.169840035770903
13,26,female,48,15,15,left,change,catch,clock,1,1.3614600192049693,0,f,1,change,0.5592490527014888,0,0,0,0,0.3875083311359049,0,0,6.392244008795387
13,26,female,49,105,155,right,change,valid,clock,1,1.1203708871107665,0,f,1,change,0.4646695674091461,0.4674566176779414,0,0,0,0.3875577245889872,0,0,4.631213712647877
13,26,female,50,165,165,left,same,valid,anti,2,0.8574623567365052,1,j,1,same,1.0162873313493037,0.4689004215791018,0,0,0,0.3875051237664593,0,0,4.972636988255545
13,26,female,51,45,355,right,change,valid,anti,2,0.8014296518522315,1,f,1,change,1.3313017869550094,0.4683859990393814,0,0,0,0.38747529525426216,0,0,5.3871051650785375
13,26,female,52,135,135,left,same,valid,clock,3,0.841427765921253,1,j,1,same,0.6439107171609066,0.46788859411938505,0,0,0,0.3874775404110551,0,0,4.691214572223544
13,26,female,53,45,355,left,change,valid,anti,2,1.6574602398759453,1,f,1,change,0.5511722606352123,0.4674059812145368,0,0,0,0.3874101856999914,0,0,4.938458000488026
13,26,female,54,165,165,right,same,valid,anti,3,2.473413491854444,1,j,1,same,0.37287022799864644,0.46693606868759974,0,0,0,0.387455730313377,0,0,5.735489068974857
13,26,female,55,135,85,left,change,valid,anti,2,1.065463647380966,1,f,1,change,0.5538603550812695,0.46647688058476044,0,0,0,0.3875015956655261,0,0,4.6569938886823365
13,26,female,56,105,75,right,change,catch,anti,1,1.0494399616145529,0,f,1,change,0.2979009064656566,0,0,0,0,0.3874223736966087,0,0,6.17414047370039
13,26,female,57,105,125,left,same,catch,anti,1,5.616361357384449,0,f,0,change,1.3845168197549356,0,0,0,0,0.38753751817785087,0,0,11.290858490316168
13,26,female,58,165,165,left,same,valid,clock,1,1.3124963516202115,0,f,0,change,0.6534542382469226,0.4660265399353988,0,0,0,0.3874813892507518,0,0,5.076381525308534
13,26,female,1,45,95,left,change,valid,clock,1,1.7441409419770935,0,f,1,change,0.4040519311238313,0.46735714160469255,0,0,0,0.3874945394563838,0,0,5.0012807017192245
13,26,female,2,165,355,right,change,catch,anti,1,1.169402550880477,0,f,1,change,2.441267654150579,0,0,0,0,0.3874881247211306,0,0,7.967863784397196
13,26,female,3,135,135,right,same,valid,anti,2,0.9124241217105009,1,j,1,same,0.4444945862851455,0.46873576897369623,0,0,0,0.3874743330452475,0,0,4.4918728522679885
13,26,female,4,45,45,right,same,catch,clock,1,1.8014447264795308,0,f,0,change,0.6605139741805033,0,0,0,0,0.38747786114981864,0,0,6.797891605099721
13,26,female,5,105,165,left,same,catch,clock,1,1.056369478439592,0,f,0,change,0.4085804128626478,0,0,0,0,0.38744546673842706,0,0,6.361350006511202
13,26,female,6,105,105,right,same,valid,anti,2,0.8964629796028021,1,f,0,change,0.8103891113714781,0.46824545752622043,0,0,0,0.3875083311359049,0,0,4.731797710068349
13,26,female,7,45,95,right,change,valid,clock,1,1.0414988411757804,0,f,1,change,0.44610019430183456,0.46777088263178773,0,0,0,0.3875003127177479,0,0,4.538719016029063
13,26,female,8,135,185,left,change,valid,clock,2,0.7933964799776732,1,f,1,change,0.4786787058401387,0.4691542789610863,0,0,0,0.3874669560973416,0,0,4.359140130516607
13,26,female,9,105,55,left,change,valid,anti,2,0.6734707754294504,1,f,1,change,0.5165779188173474,0.4686580369539727,0,0,0,0.3874781818849442,0,0,4.013300951755809
13,26,female,10,75,215,left,change,catch,clock,1,0.7454408879020775,0,f,1,change,0.41594933899250464,0,0,0,0,0.38746567315320135,0,0,5.48771514217151
13,26,female,11,15,15,left,same,valid,anti,2,0.832516737646074,1,j,1,same,1.0672408495447598,0.468179023815561,0,0,0,0.38746888052264694,0,0,5.062514473243937
13,26,female,12,105,75,right,change,catch,anti,1,0.8174927882355405,0,f,1,change,0.6522829077475762,0,0,0,0,0.3874775404110551,0,0,6.408003728243784
13,26,female,13,165,115,right,change,valid,anti,2,0.6962857404942042,1,f,1,change,0.512052323705575,0.46771515980825457,0,0,0,0.3874682390487578,0,0,4.4336299506503565
13,26,female,14,45,75,right,change,catch,anti,1,0.729465633379732,0,f,1,change,0.4594662556082767,0,0,0,0,0.3875243679722189,0,0,5.503202556141332
13,26,female,15,15,15,left,same,valid,clock,2,0.7283853921107948,1,j,1,same,0.888752789607679,0.46726449413134447,0,0,0,0.38747048420191277,0,0,4.765542420318525
13,26,female,16,75,25,right,change,valid,anti,2,0.7374792403170431,1,f,1,change,0.6590167751710396,0.46682518843291676,0,0,0,0.3875583660665143,0,0,4.606111894776404
13,26,female,17,105,105,left,same,valid,anti,2,0.7054889599239687,1,j,1,same,0.5721769876508915,0.4663955017737913,0,0,0,0.3874708049406763,0,0,4.1312223725435615
13,26,female,18,15,15,right,same,valid,clock,2,0.5694077468178875,1,j,1,same,0.6617853745337925,0.4659737768456496,0,0,0,0.3875054445088608,0,0,4.299887870442035
13,26,female,19,45,45,left,same,valid,clock,2,0.6254766949496116,1,j,1,same,0.5021883866356802,0.4655584272673309,0,0,0,0.3874605413657264,0,0,4.080627758736227
13,26,female,20,45,355,right,change,valid,anti,2,0.6174810492702818,1,f,1,change,0.9808468860610446,0.4651479258019228,0,0,0,0.3874310335886548,0,0,4.679881019506865
13,26,female,21,135,85,left,change,valid,anti,2,1.4494499686006748,1,f,1,change,0.7270453540986637,0.46474079335315827,0,0,0,0.3874993505050952,0,0,5.23057891053395
13,26,female,22,45,45,right,same,valid,clock,2,0.5534927908011014,1,j,1,same,0.48914947678349563,0.4643073845472233,0,0,0,0.387567346693686,0,0,3.7635407024536107
13,26,female,23,135,135,left,same,valid,clock,2,0.39349359905463643,1,j,1,same,0.4188600247252907,0.46387417605662523,0,0,0,0.38751089703146135,0,0,3.6347305907765985
13,26,female,24,165,165,left,same,valid,clock,3,1.2974669496834395,1,j,1,same,0.4611799519007036,0.4634394621005121,0,0,0,0.3874217322190816,0,0,4.85444711083619
13,26,female,25,15,65,right,change,valid,clock,3,0.9454298545606434,1,f,1,change,0.9878739068481082,0.4630015437543747,0,0,0,0.3874724086235801,0,0,4.905798021824012
13,26,female,26,165,165,right,same,valid,anti,2,1.161504088431684,1,j,1,same,0.42648554022525786,0.4625587166391004,0,0,0,0.3875185947108548,0,0,4.542250327311194
13,26,female,27,75,75,left,same,valid,clock,1,1.3134967294463422,0,f,0,change,0.39552739059581654,0.46210925873861447,0,0,0,0.38741820411451044,0,0,4.7048741076323495
13,26,female,28,15,15,left,change,catch,clock,1,0.8735158710151154,0,f,1,change,0.22479538600964588,0,0,0,0,0.38751185924047604,0,0,5.893085301213432
13,26,female,29,75,125,left,change,valid,clock,2,4.144302657434309,1,f,1,change,0.5104046991764335,0.46329996071073776,0,0,0,0.3875327071255015,0,0,8.062504851142876
13,26,female,30,15,325,right,change,valid,anti,2,0.6494960263917164,1,f,1,change,0.5147628697195614,0.46286858641882705,0,0,0,0.3875121799756016,0,0,4.187724956718739
13,26,female,31,105,125,left,same,catch,anti,1,1.3055341196522932,0,f,0,change,0.05976704250497278,0,0,0,0,0.3874967846168147,0,0,5.846833462590439
13,26,female,32,165,165,left,same,valid,anti,1,0.648499818140408,0,f,0,change,0.2905265278131992,0.4624318434807318,0,0,0,0.38743007137600216,0,0,3.946190321319591
13,26,female,33,15,325,left,change,valid,anti,1,0.6094142000401916,0,f,1,change,0.4332979881473875,0.46358598921921823,0,0,0,0.38753174492012477,0,0,3.790287258219905
13,26,female,34,75,75,left,same,valid,anti,1,2.5853797939707874,0,f,0,change,1.4627015268997638,0.4646809779112737,0,0,0,0.38744450452941237,0,0,6.941966539463465
13,26,female,35,135,135,right,same,valid,clock,1,2.6574227136734407,0,f,0,change,1.4772113353465102,0.46574758307733066,0,0,0,0.38748587956797564,0,0,6.862969085468649
13,26,female,36,165,215,left,change,valid,clock,2,5.081405224544142,1,f,1,change,0.8510014362582297,0.4668995540740659,0,0,0,0.38750801039714133,0,0,9.05380839573263
13,26,female,37,75,75,right,same,valid,anti,2,0.8814630854467396,1,j,1,same,0.5199373152172484,0.46650441849961966,0,0,0,0.38745123999979114,0,0,4.652482726723974
13,26,female,38,135,135,right,same,catch,clock,1,0.8654766051404295,0,f,0,change,0.3095468567480566,0,0,0,0,0.3875577245889872,0,0,5.471936178524629
13,26,female,39,135,85,right,change,valid,anti,2,0.8244790754579299,1,f,1,change,0.5410376217732846,0.46611690142015133,0,0,0,0.38741082717388053,0,0,4.6535199892750825
13,26,female,40,105,155,right,change,valid,clock,2,0.585401283329702,1,f,1,change,0.7806212157083792,0.4657356402924989,0,0,0,0.38747305009746924,0,0,4.3152816292895295
13,26,female,41,45,45,left,same,valid,anti,2,0.7054607350910373,1,f,0,change,0.7307931626637583,0.4653593245534754,0,0,0,0.38745444736559875,0,0,4.607964470069419
13,26,female,42,75,75,right,same,valid,clock,3,1.0654966832626087,1,j,1,same,0.5685337392569636,0.4649866868419097,0,0,0,0.38748844545989414,0,0,4.732592174921592
13,26,female,43,105,155,left,change,valid,clock,2,0.8334019709946006,1,f,1,change,0.9467198576421652,0.46459084180051513,0,0,0,0.3875176325018401,0,0,4.925297531415708
13,26,female,44,135,185,right,change,valid,clock,2,0.6894989515094494,1,f,1,change,0.7059408779605292,0.46419608707984067,0,0,0,0.38752308502807864,0,0,4.282082812937006
13,26,female,45,165,165,right,same,valid,clock,3,0.7694515594521363,1,j,1,same,0.4055282822409936,0.4638009750597637,0,0,0,0.38744963631688734,0,0,4.166278575234173
13,26,female,46,15,15,right,same,valid,anti,2,0.7294252205538214,1,j,1,same,0.7306764144959743,0.46340407015124707,0,0,0,0.3874319957976695,0,0,4.24009741415648
13,26,female,47,135,135,left,same,valid,anti,2,0.61749259579301,1,j,1,same,0.5251457588019548,0.46300393915444504,0,0,0,0.3874897284076724,0,0,4.043037415220169
13,26,female,48,105,105,right,same,valid,clock,2,0.6735034905759676,1,j,1,same,0.47693646397965495,0.4625991417816248,0,0,0,0.38746823904511984,0,0,4.145574057787599
13,26,female,49,45,75,left,same,catch,anti,1,0.7455104877699341,0,f,0,change,0.42370988465700066,0,0,0,0,0.38748106851562625,0,0,5.378481516905595
13,26,female,50,165,115,left,change,valid,anti,2,0.6962222346228373,1,f,1,change,0.7427104562084423,0.462188221247933,0,0,0,0.38752340575956623,0,0,4.6751296257461945
13,26,female,51,45,45,right,same,valid,anti,2,0.4814623798301909,1,f,0,change,0.725354109374166,0.46176969483579566,0,0,0,0.3875179532369657,0,0,4.273509841164923
13,26,female,52,75,125,right,change,valid,clock,2,0.4971515371944406,1,f,1,change,0.5561212282191264,0.46134204434018966,0,0,0,0.3874643902054231,0,0,3.965847954117635
13,26,female,53,165,215,right,change,valid,clock,3,0.7695256496372167,1,f,1,change,0.5312529066759453,0.4609037063022358,0,0,0,0.3874926150383544,0,0,4.338064520681655
13,26,female,54,105,105,left,same,valid,clock,3,0.7694785013409273,1,j,1,same,0.5592291670254781,0.46045306193755386,0,0,0,0.38752789607679006,0,0,4.344014186823188
13,26,female,55,105,55,right,change,valid,anti,3,0.657458956924529,1,f,1,change,0.6295282411920198,0.4599880821221694,0,0,0,0.3874903698815615,0,0,4.118241195297742
13,26,female,56,45,355,left,change,valid,anti,3,0.6174409571794968,1,f,1,change,0.678802381917194,0.45951218851399533,0,0,0,0.3875048030313337,0,0,4.278446941487346
13,26,female,57,15,65,left,change,valid,clock,3,0.8334494400260155,1,f,1,change,0.5523079893609975,0.45905481681257065,0,0,0,0.38747208788845455,0,0,4.346687527380709
13,26,female,58,75,25,left,change,valid,anti,1,0.8174863735002873,0,f,1,change,0.4428703755365859,0.45861407816505173,0,0,0,0.38745444736923673,0,0,4.1049626951135
13,26,female,1,15,15,left,change,catch,clock,1,1.1603548887651414,0,f,1,change,0.641475363248901,0,0,0,0,0.38753110344623565,0,0,6.376454781573557
13,26,female,2,105,155,left,change,valid,clock,2,0.6641902584560739,1,f,1,change,0.43607653034632676,0.45989240283457666,0,0,0,0.3875096140836831,0,0,4.099701650706265
13,26,female,3,45,355,right,change,valid,anti,2,0.6414516287331935,1,f,1,change,0.6753198226215318,0.4594268710728482,0,0,0,0.3874541266304732,0,0,4.147297376181086
13,26,female,4,45,75,left,same,catch,anti,1,0.6655078449002758,0,f,0,change,0.256329258052574,0,0,0,0,0.38746663536221604,0,0,5.5342918870956055
13,26,female,5,105,155,right,change,valid,clock,2,0.600456985677738,1,f,1,change,0.7088785055711924,0.4589792283022611,0,0,0,0.3874621450486302,0,0,4.544881972095027
13,26,female,6,105,105,left,same,valid,clock,2,0.7373259281666833,1,j,1,same,0.551904181826103,0.45854765956098936,0,0,0,0.38746663536221604,0,0,4.2758871417318005
13,26,female,7,105,105,right,same,valid,anti,3,1.2574540817295201,1,j,1,same,0.5084449978239718,0.45813046745263203,0,0,0,0.387413393065799,0,0,4.6563030217912456
13,26,female,8,135,135,right,same,valid,clock,2,0.8574431125307456,1,j,1,same,0.5053360968013294,0.45772605901052626,0,0,0,0.3874242981146381,0,0,4.422462218815781
13,26,female,9,75,25,right,change,valid,anti,2,0.617229912419134,1,f,1,change,0.589257500909298,0.4573329337281591,0,0,0,0.3874563717872661,0,0,3.9587070717934694
13,26,female,10,15,325,right,change,valid,anti,2,0.5054634292791889,1,f,1,change,0.8899818527133903,0.45694967261330355,0,0,0,0.3875795346866653,0,0,4.522275806637481
13,26,female,11,15,15,left,same,valid,anti,2,0.5934723021382524,1,j,1,same,0.6543327361214324,0.4565749281389405,0,0,0,0.3874005635989306,0,0,4.261193551141332
13,26,female,12,15,15,right,same,valid,clock,2,0.4254704085069534,1,j,1,same,0.5917534740619885,0.4562074149774211,0,0,0,0.3874913320905762,0,0,3.9770920212904457
13,26,female,13,135,85,right,change,valid,anti,2,0.4654993133044627,1,f,1,change,0.5620769883571484,0.45584590141592607,0,0,0,0.38746310726128286,0,0,4.029867003311665
13,26,female,14,45,45,right,same,valid,anti,2,0.5054579767529503,1,j,1,same,0.5844025091864751,0.4554892013613086,0,0,0,0.38750191640428966,0,0,4.171978708214738
13,26,female,15,45,45,left,same,valid,anti,2,0.5774159012289601,1,j,1,same,0.6304740937739552,0.45513616685105673,0,0,0,0.38751506660628365,0,0,4.053538335414487
13,26,female,16,165,215,right,change,valid,clock,2,0.545483032707125,1,f,1,change,0.5717632372870867,0.45478568099453603,0,0,0,0.3874881247211306,0,0,3.988359181505075
13,26,female,17,75,75,right,same,valid,clock,1,1.2974922878856887,0,f,0,change,1.9862269237964938,0.45441236967997317,0,0,0,0.38744129716360476,0,0,6.280127922633255
13,26,female,18,75,75,left,same,valid,anti,1,0.889374377369677,0,f,0,change,2.191687658883893,0.4553828710182616,0,0,0,0.387522122815426,0,0,6.384430862315639
13,26,female,19,105,75,right,change,catch,anti,1,0.9534463481249986,0,f,1,change,0.9069542776960589,0,0,0,0,0.38751410439726897,0,0,6.1115926438396855
13,26,female,20,75,125,right,change,valid,clock,2,0.6404865319454984,1,f,1,change,0.6973566804008442,0.45642235368743495,0,0,0,0.3875035200835555,0,0,4.702576349773153
13,26,female,21,135,135,left,same,valid,anti,2,0.8254938864374708,1,j,1,same,0.40514820923272055,0.4560694862783965,0,0,0,0.3874441837942868,0,0,4.3970608328527305
13,26,female,22,75,75,right,same,valid,anti,1,0.7694675962920883,0,f,0,change,0.6587630724243354,0.45572197051742636,0,0,0,0.3873787535012525,0,0,4.1411167795995425
13,26,female,23,105,165,left,same,catch,clock,1,0.8494134687607584,0,f,0,change,0.5271423448830319,0,0,0,0,0.38753751817785087,0,0,5.877673581107956
13,26,female,24,45,95,right,change,valid,clock,1,0.7996534119010903,0,f,1,change,0.6890704472534708,0.45675234068051274,0,0,0,0.3874631072576449,0,0,4.931491598941648
13,26,female,25,15,15,right,same,valid,anti,2,0.6974509769970609,1,j,1,same,0.6696161615400342,0.4578113869679816,0,0,0,0.3874335994805733,0,0,4.096178357838653
13,26,female,26,45,355,left,change,valid,anti,2,0.809397714172519,1,f,1,change,0.7170431795020704,0.4574396350545459,0,0,0,0.3875371974427253,0,0,4.511899653025466
13,26,female,27,165,355,right,change,catch,anti,2,0.8814643683981558,1,f,1,change,0.6778048907217453,0,0,0,0,0.38747529525426216,0,0,5.955672260959545
13,26,female,28,165,165,left,same,valid,anti,1,1.0637637427644222,0,f,0,change,0.6365331311426417,0.45707750347214754,0,0,0,0.38752308502444066,0,0,4.937536203156924
13,26,female,29,105,105,right,same,valid,clock,1,0.8094455039426975,0,f,0,change,0.8106027220273972,0.45813928345580424,0,0,0,0.38754008406976936,0,0,4.910484947504301
13,26,female,30,45,95,left,change,valid,clock,1,0.6174852188487421,0,f,1,change,0.5393826203035132,0.45926630926675566,0,0,0,0.3874403349509521,0,0,3.994991054652928
13,26,female,31,15,65,right,change,valid,clock,1,0.76146649808652,0,f,1,change,0.8225126386314514,0.4604556825425571,0,0,0,0.3874441837942868,0,0,4.480356158881477
13,26,female,32,105,125,left,same,catch,anti,1,0.665469035757269,0,f,0,change,0.4144800440808467,0,0,0,0,0.3875131421882543,0,0,5.705817715057492
13,26,female,33,15,15,left,same,valid,clock,2,1.4880471046781167,1,j,1,same,0.48324311009491794,0.46154380360278646,0,0,0,0.3875121799756016,0,0,5.114770823991421
13,26,female,34,45,45,right,same,catch,clock,1,0.8014729513124621,0,f,0,change,0.3756949562848604,0,0,0,0,0.38758210058222176,0,0,5.503327964201162
13,26,female,35,45,45,right,same,valid,clock,2,0.6404756268966594,1,j,1,same,0.4931416867293592,0.46116241261567514,0,0,0,0.3874230151704978,0,0,4.4963163387801615
13,26,female,36,75,75,left,same,valid,clock,2,0.5774184671208786,1,j,1,same,0.5690722562103474,0.46077072410088915,0,0,0,0.3874589376791846,0,0,4.074132519432169
13,26,female,37,135,185,right,change,valid,clock,2,0.8814422375617141,1,f,1,change,0.5585870521172183,0.4603674364122587,0,0,0,0.3875240472370933,0,0,4.473211106986128
13,26,female,38,165,215,left,change,valid,clock,3,0.8254608505558281,1,f,1,change,0.5820518297696253,0.4599499978490255,0,0,0,0.3875073689232522,0,0,4.1225288037603605
13,26,female,39,165,115,left,change,valid,anti,3,2.4014475489639153,1,f,1,change,0.6510628252690367,0.4595270616546884,0,0,0,0.38742365664438694,0,0,6.067058350348816
13,26,female,40,15,325,left,change,valid,anti,3,0.6814202350215055,1,f,1,change,2.0630119358975207,0.45912050105180663,0,0,0,0.3874303921147657,0,0,5.805335904358799
13,26,female,41,165,165,right,same,valid,clock,2,0.7294540868606418,1,j,1,same,0.5973018985714589,0.45872880291320084,0,0,0,0.38744161789873033,0,0,4.20102173889245
13,26,female,42,105,105,left,same,valid,anti,2,0.5054605426485068,1,j,1,same,0.7366844547250366,0.458350550545923,0,0,0,0.38749069061668706,0,0,4.267311924799287
13,26,female,43,135,135,right,same,catch,clock,1,0.6654969398514368,0,f,0,change,0.5078461823650287,0,0,0,0,0.3874675975748687,0,0,5.92446778552403
13,26,female,44,135,85,left,change,valid,anti,3,0.8323631047569506,1,f,1,change,0.7024015482602408,0.4579844137489828,0,0,0,0.38751987765863305,0,0,4.838110065298679
13,26,female,45,75,215,left,change,catch,clock,1,0.6094959879046655,0,f,1,change,0.283572955737327,0,0,0,0,0.3874695219928981,0,0,5.112973415416491
13,26,female,46,165,165,left,same,valid,clock,3,0.7602576413919451,1,j,1,same,0.5120722093815857,0.45762913973083275,0,0,0,0.3875282168155536,0,0,4.506421790592867
13,26,female,47,135,185,left,change,valid,clock,3,0.7374943149407045,1,f,1,change,1.023818550256692,0.45728354478891725,0,0,0,0.3875371974427253,0,0,4.67641385556999
13,26,female,48,135,135,left,same,valid,clock,3,0.5293903885467444,1,j,1,same,0.41947295259160455,0.456946506663828,0,0,0,0.38746727683610516,0,0,4.194875461140327
13,26,female,49,165,115,right,change,valid,anti,4,1.3854822372777562,1,f,1,change,0.6031290432874812,0.4566169574895736,0,0,0,0.3874615035747411,0,0,4.917422482747497
13,26,female,50,75,25,left,change,valid,anti,4,1.4734215102726012,1,f,1,change,0.7421392241121794,0.4562938772693167,0,0,0,0.38745284368269495,0,0,5.394150467858708
13,26,female,51,105,55,right,change,valid,anti,3,0.8174943919184443,1,f,1,change,0.5294182926409121,0.4559762878127955,0,0,0,0.387479785567848,0,0,4.33883717543722
13,26,female,52,45,45,left,same,valid,clock,3,0.6574666546075605,1,j,1,same,0.5069962300622137,0.4556632470776348,0,0,0,0.3874977468221914,0,0,3.8970906613649277
13,26,female,53,15,65,left,change,valid,clock,4,0.8014873844622343,1,f,1,change,0.5098953692686337,0.45535384386197053,0,0,0,0.38744161789873033,0,0,4.2274299174205225
13,26,female,54,165,165,right,same,valid,anti,3,0.48938489753345493,1,j,1,same,0.547308986850112,0.4550471928003421,0,0,0,0.3874749745191366,0,0,3.662541671717918
13,26,female,55,105,55,left,change,valid,anti,3,0.6414439310538,1,f,1,change,0.7358691419867682,0.4547424296187274,0,0,0,0.38744386305552325,0,0,4.266840762556967
13,26,female,56,45,75,right,change,catch,anti,1,0.9294491475120594,0,f,1,change,0.5224474007809476,0,0,0,0,0.38754168775267317,0,0,5.986818362303893
13,26,female,57,135,135,right,same,valid,anti,1,0.7996896551521786,0,f,0,change,0.5850872820810764,0.454417574840517,0,0,0,0.3874701634667872,0,0,4.694988360464777
13,26,female,58,75,125,left,change,valid,clock,1,0.6174339009703544,0,f,1,change,0.5887067959629348,0.45526241132908923,0,0,0,0.3875631771152257,0,0,3.877940754799056
