subject,age,gender,ntrial,memory_ori,test_ori,cue,type,trial_type,which_change,pas,pas_rt,vis,test_key,test_acc,test,test_rt,contrast,fix_dur,cue_dur,jitter_dur,target_dur,mask_dur,retention_dur,trial_dur
14,23,female,1,45,355,left,change,valid,anti,1,1.6480916867876658,0,j,1,change,1.6288183583983482,0.5,0,0,0,0.3874730902753072,0,0,6.417224853680636
14,23,female,2,135,135,right,same,valid,anti,2,1.5773948051082698,1,f,1,same,1.4639194799465258,0.6571452603159259,0,0,0,0.38746314746913413,0,0,6.162014502385318
14,23,female,3,15,15,left,same,valid,clock,1,1.1693657644154882,0,j,0,change,1.8840530856059559,0.6071840821787083,0,0,0,0.3874615437907778,0,0,6.421820354657029
14,23,female,4,105,105,right,same,valid,anti,2,1.0254532636781732,1,f,1,same,0.8551756476936134,0.689912631090831,0,0,0,0.3874621852628479,0,0,5.169159852101984
14,23,female,5,105,55,left,change,valid,anti,1,0.6655041066997001,0,j,1,change,1.078162325615267,0.6620511691154406,0,0,0,0.387435884936167,0,0,4.64519865085731
14,23,female,6,45,45,left,same,valid,clock,1,0.6333538817998488,0,j,0,change,1.977550105329101,0.7151080272910296,0,0,0,0.3874567327557088,0,0,5.858655629937857
14,23,female,7,15,325,right,change,valid,anti,3,3.0494946488452115,1,j,1,change,1.097048205291685,0.7652319644794845,0,0,0,0.38739034046739107,0,0,6.958878477095823
14,23,female,8,75,25,left,change,catch,anti,2,2.0014798744768996,1,f,0,same,1.1888575138109445,0,0,0,0,0.3875330678501996,0,0,8.232338368456112
14,23,female,9,105,155,right,change,valid,clock,2,1.1759732403797898,1,j,1,change,1.1266893148822419,0.7480113467614596,0,0,0,0.3874779013112857,0,0,5.705899804735964
14,23,female,10,75,75,right,same,valid,anti,2,1.2254364571281258,1,f,1,same,0.9548028886738393,0.7336088112552341,0,0,0,0.3875022772226657,0,0,5.787550130989075
14,23,female,11,105,105,right,change,catch,clock,1,1.5374154219980483,0,j,1,change,1.6371648632766664,0,0,0,0,0.387445507006305,0,0,7.702747935103616
14,23,female,12,15,325,left,change,valid,anti,1,0.7679323324664438,0,j,1,change,1.8092167891027202,0.7208591485891638,0,0,0,0.3874641096763298,0,0,5.5786626732933655
14,23,female,13,165,165,left,same,valid,clock,2,1.5453869868542824,1,f,1,same,1.7101171583326504,0.7493465905524512,0,0,0,0.3874384508208095,0,0,6.263898439685363
14,23,female,14,105,105,left,same,valid,clock,2,1.3454567147946364,1,f,1,same,0.8174157555640704,0.7391861561505451,0,0,0,0.3874127919661987,0,0,5.55949262179638
14,23,female,15,45,45,left,same,valid,anti,1,1.1133906509394365,0,j,0,change,1.42436154353436,0.7301329589395591,0,0,0,0.38746282673400856,0,0,5.275705041195579
14,23,female,16,135,85,right,change,valid,anti,2,0.9774962217334178,1,j,1,change,1.1455469698175875,0.75204510951165,0,0,0,0.38745801569803007,0,0,5.62633041164554
14,23,female,17,75,25,left,change,valid,anti,2,1.041359508786627,1,f,0,same,1.7979124596840848,0.744119622906904,0,0,0,0.38744101670636155,0,0,6.09658955325358
14,23,female,18,165,215,left,change,valid,clock,2,2.0973872229160406,1,j,1,change,1.0767924634810697,0.7367663982797611,0,0,0,0.3874432618558785,0,0,6.524345121866645
14,23,female,19,15,15,right,same,valid,anti,2,0.9294641276374023,1,f,1,same,0.9377397499283688,0.7303021279252263,0,0,0,0.38747533542482415,0,0,5.0344066004845445
14,23,female,20,105,105,left,same,valid,anti,2,1.217398820719609,1,f,1,same,0.7071821060271759,0.7241597027022584,0,0,0,0.38751735180085234,0,0,4.969967913601977
14,23,female,21,135,135,right,same,valid,clock,2,0.8574833409884377,1,f,1,same,0.4834311149543282,0.7182361627504843,0,0,0,0.3875375581492335,0,0,4.456069153180579
14,23,female,22,165,115,left,change,valid,anti,2,0.5294371216923537,1,f,0,same,0.7406665914013502,0.7129074919629061,0,0,0,0.3875426899203376,0,0,4.008615602123427
14,23,female,23,75,75,right,same,valid,clock,3,1.6810908990601092,1,f,1,same,0.6800930903264089,0.7076649257023133,0,0,0,0.3874384508208095,0,0,5.486230816798525
14,23,female,24,165,155,right,change,catch,anti,1,1.1373710963262056,0,f,0,same,1.9613102951025212,0,0,0,0,0.3875061260514485,0,0,7.718145172671029
14,23,female,25,75,75,left,same,valid,clock,2,1.2959514816702722,1,f,1,same,0.6573320820371009,0.7028959256312097,0,0,0,0.38752504945750843,0,0,5.094098719880094
14,23,female,26,45,355,right,change,valid,anti,2,1.1294633578718276,1,j,1,change,0.7945248493188046,0.6981392329537408,0,0,0,0.3875042016379666,0,0,4.91875989469554
14,23,female,27,15,15,right,same,valid,clock,2,1.4814967580032317,1,f,1,same,1.1070054448091469,0.693772108214057,0,0,0,0.3875433313914982,0,0,5.756058055725589
14,23,female,28,165,165,left,same,valid,anti,2,0.7134229810972101,1,f,1,same,1.163639670129669,0.6893827060260678,0,0,0,0.3874442240639837,0,0,5.318503049555147
14,23,female,29,45,165,right,same,catch,anti,1,0.5773255261992745,0,j,0,change,1.1346794824094104,0,0,0,0,0.3874272250714057,0,0,6.361278606415908
14,23,female,30,75,75,left,same,catch,clock,1,0.4241800071331454,0,j,0,change,1.1401541199138592,0,0,0,0,0.3874775805752506,0,0,6.392499980755019
14,23,female,31,165,115,right,change,valid,anti,1,0.5520316681595432,0,j,1,change,1.5079484718871754,0.6852965720983797,0,0,0,0.3874416581775222,0,0,5.345915366831832
14,23,female,32,15,215,left,change,catch,anti,1,0.4415452788989569,0,j,1,change,1.0050653787629926,0,0,0,0,0.3874025284239906,0,0,5.908805541799666
14,23,female,33,135,185,right,change,valid,clock,1,0.32846894893646095,0,j,1,change,0.744644996907482,0.6963735778900944,0,0,0,0.3874499973053389,0,0,4.495027955323167
14,23,female,34,45,85,right,change,catch,clock,2,0.6573012914104766,1,f,0,same,1.2661766252958842,0,0,0,0,0.3874159993229114,0,0,6.579487926225738
14,23,female,35,105,55,right,change,valid,anti,2,0.5204805775292698,1,j,1,change,1.0659131088532376,0.7068101467315593,0,0,0,0.3874993906028976,0,0,5.02442658873224
14,23,female,36,15,15,left,same,valid,anti,2,1.2014325980353533,1,f,1,same,0.49783792070866184,0.7033200053623466,0,0,0,0.38748559896794177,0,0,5.023835793590479
14,23,female,37,165,165,right,same,valid,anti,2,0.6014679431091281,1,f,1,same,0.7168994352487061,0.6997605490998581,0,0,0,0.3874798257256771,0,0,4.423648227357262
14,23,female,38,45,45,right,same,valid,clock,3,1.345472110107039,1,f,1,same,0.533688794007503,0.6964178147528727,0,0,0,0.38752857755025616,0,0,4.783606044199587
14,23,female,39,75,75,left,same,valid,anti,3,1.401426055027514,1,f,1,same,0.6732203659466904,0.6932874346319836,0,0,0,0.3874384508208095,0,0,5.104861005980638
14,23,female,40,135,85,left,change,valid,anti,2,1.1131064791179597,1,f,0,same,1.890141290486099,0.6900696615639146,0,0,0,0.38750099428034446,0,0,6.049633527399237
14,23,female,41,165,165,right,same,valid,clock,3,0.8334942357387263,1,f,1,same,0.6324506900955384,0.687008326804786,0,0,0,0.38751061635139195,0,0,4.667985959474208
14,23,female,42,105,155,left,change,valid,clock,2,0.9214739601102337,1,j,1,change,1.164831203220274,0.6841370331853287,0,0,0,0.38737911471889674,0,0,4.962356534925675
14,23,female,43,75,125,left,change,valid,clock,3,0.7134675633587904,1,j,1,change,0.9205377326288726,0.6811895355835645,0,0,0,0.38752120062963513,0,0,4.97618858232272
14,23,female,44,135,65,left,same,catch,anti,1,0.5934084966738737,0,j,0,change,0.6893248257119922,0,0,0,0,0.38749714545247116,0,0,5.971392300803927
14,23,female,45,135,135,left,same,valid,anti,3,0.6083496480887334,1,f,1,same,1.9188811327876465,0.678323352089833,0,0,0,0.3874788635184814,0,0,5.566489791624008
14,23,female,46,45,95,left,change,valid,clock,1,0.7134621108516512,0,j,1,change,0.814652617588763,0.6756292465133183,0,0,0,0.3874586571701002,0,0,4.307913639991057
14,23,female,47,15,65,right,change,valid,clock,2,1.1214189860147599,1,j,1,change,1.4267580806154,0.6831871129301876,0,0,0,0.38757925378922664,0,0,5.4883402954355915
14,23,female,48,15,65,left,change,valid,clock,2,0.9133968732112407,1,f,0,same,0.9621689045470703,0.6805573657441819,0,0,0,0.3874301116929928,0,0,5.284588457620885
14,23,female,49,135,185,left,change,valid,clock,2,0.5214107110332407,1,j,1,change,1.0075440241798788,0.6780031205700191,0,0,0,0.3874807879319633,0,0,4.690655237357532
14,23,female,50,45,95,right,change,valid,clock,1,0.5614908051484235,0,j,1,change,1.1410281246717204,0.6755990291876991,0,0,0,0.3874779013103762,0,0,4.7690940371385295
14,23,female,51,105,135,right,change,catch,anti,1,0.48948724626461626,0,j,1,change,0.6101701438692544,0,0,0,0,0.38748559896794177,0,0,5.752766986803181
14,23,female,52,45,45,right,same,valid,anti,3,0.8721537914807413,1,f,1,same,0.6862290848257544,0.682411494088736,0,0,0,0.3874823916103196,0,0,4.644493353072903
14,23,female,53,105,105,right,same,valid,clock,3,0.5854712505351927,1,f,1,same,0.7395914853641443,0.6800315934418548,0,0,0,0.3874567327547993,0,0,4.281688044768998
14,23,female,54,135,135,left,same,valid,clock,1,1.0175811268854886,0,j,0,change,0.07502681350342755,0.677734040736567,0,0,0,0.38748944779581507,0,0,3.966086049536898
14,23,female,55,165,325,left,same,catch,clock,1,0.8813977148238337,0,j,0,change,1.2799964847363299,0,0,0,0,0.3874147163796806,0,0,6.923060639572213
14,23,female,56,75,125,right,change,valid,clock,1,0.4164791431994672,0,j,1,change,0.760373554445323,0.6839651257070891,0,0,0,0.38752697387099033,0,0,4.7386905388102605
14,23,female,57,165,215,right,change,valid,clock,2,0.7214057717028481,1,j,1,change,0.8996065214541886,0.6896872405758119,0,0,0,0.3875167103287822,0,0,4.586589014417768
14,23,female,58,75,25,right,change,valid,anti,2,1.537431458782521,1,j,1,change,1.6794795229507145,0.6875676324550439,0,0,0,0.3875224835719564,0,0,6.135486453406884
14,23,female,1,105,135,right,change,catch,anti,1,1.3280888771441823,0,j,1,change,1.1784246232637088,0,0,0,0,0.3874108675508978,0,0,7.32654774214916
14,23,female,2,165,165,left,same,valid,clock,3,0.8484809316214523,1,f,1,same,0.5378792058072577,0.6855610043698842,0,0,0,0.38748784411745874,0,0,4.414046362985573
14,23,female,3,135,135,right,same,valid,anti,2,1.049449104377345,1,f,1,same,1.2746681027074374,0.6836311975932918,0,0,0,0.38749073073813634,0,0,5.204976085946328
14,23,female,4,135,185,right,change,valid,clock,2,0.7134037369560247,1,j,1,change,0.9450566932409856,0.6816144482780498,0,0,0,0.38747822204641125,0,0,5.097789746208036
14,23,female,5,15,325,left,change,valid,anti,3,0.5215511932656227,1,j,1,change,1.0383955902689195,0.6796125235645993,0,0,0,0.3874471106846613,0,0,4.746842998596549
14,23,female,6,45,95,left,change,valid,clock,3,1.2011532372489455,1,j,1,change,3.0204218828985177,0.6776913207064096,0,0,0,0.38745641201967373,0,0,7.458736391185084
14,23,female,7,75,75,right,same,valid,anti,3,0.7134662804146501,1,f,1,same,0.8159772559902194,0.6758669580731756,0,0,0,0.38743171537134913,0,0,5.129425831796652
14,23,female,8,165,165,left,same,valid,anti,3,0.46550166910856206,1,f,1,same,0.957912741931068,0.6741098143153891,0,0,0,0.38742465918585367,0,0,4.315415647796726
14,23,female,9,135,185,left,change,valid,clock,2,1.337442812826339,1,j,1,change,0.7455382458065287,0.6722739531894358,0,0,0,0.387457694961995,0,0,5.208512838408751
14,23,female,10,45,165,right,same,catch,anti,1,0.6174861249746755,0,j,0,change,0.602971231290212,0,0,0,0,0.3875359544708772,0,0,5.503179132166224
14,23,female,11,75,125,left,change,valid,clock,2,0.5834448424429866,1,j,1,change,0.9124952851852868,0.6704520023478767,0,0,0,0.38745352539899613,0,0,4.664114358952247
14,23,female,12,105,105,left,same,valid,clock,3,0.6735019718835247,1,f,1,same,1.061553348608868,0.6686519687107019,0,0,0,0.3874920136813671,0,0,5.00688747822187
14,23,female,13,45,355,right,change,valid,anti,2,0.4974427743381966,1,j,1,change,0.8864066441037721,0.6669436834501015,0,0,0,0.3874079809311297,0,0,4.59798828160001
14,23,female,14,165,115,left,change,valid,anti,2,0.5694174670097709,1,f,0,same,1.6024814678912662,0.6653065358903839,0,0,0,0.3874435825919136,0,0,5.4667028242702145
14,23,female,15,105,105,right,same,valid,anti,3,0.45744254340934276,1,f,1,same,0.9920043799666018,0.6637173650064747,0,0,0,0.3874195274147496,0,0,4.30926618239846
14,23,female,16,75,25,left,change,catch,anti,1,0.3694666678638896,0,j,1,change,0.6827686674587312,0,0,0,0,0.3874102260806467,0,0,5.690525018666449
14,23,female,17,75,25,right,change,valid,anti,2,0.5755287648589729,1,j,1,change,1.4009792702090635,0.6620454835073358,0,0,0,0.3874548083404079,0,0,4.947634445986296
14,23,female,18,135,65,left,same,catch,anti,1,0.3772948638670641,0,j,0,change,0.7899915710677305,0,0,0,0,0.38736853044065356,0,0,5.674770802275816
14,23,female,19,15,325,right,change,valid,anti,2,0.5364503283035447,1,j,1,change,0.8734469977844128,0.6603776392773777,0,0,0,0.38751157855858764,0,0,4.4566217807750945
14,23,female,20,105,155,right,change,valid,clock,2,0.44924935018934775,1,j,1,change,1.537279109330484,0.6587216030909854,0,0,0,0.38749906986686256,0,0,5.21714255290226
14,23,female,21,105,105,right,change,catch,clock,1,0.2894758280745009,0,j,1,change,0.6575758411618153,0,0,0,0,0.3874987491308275,0,0,5.425461025482036
14,23,female,22,15,65,right,change,valid,clock,1,0.37634644843092246,0,j,1,change,1.0197355085201707,0.6571455424764988,0,0,0,0.38743075316415343,0,0,4.503461379573309
14,23,female,23,75,75,right,same,valid,clock,1,0.43342104385374114,0,j,0,change,1.897241095735808,0.6616122496612331,0,0,0,0.3874586571691907,0,0,5.505268725190945
14,23,female,24,15,15,right,same,valid,clock,2,0.5053097793606867,1,f,1,same,1.454177133342455,0.6656965755239375,0,0,0,0.38749810765966686,0,0,4.64500396429321
14,23,female,25,75,75,left,same,valid,anti,1,0.6013473464900017,0,j,0,change,5.733418926996819,0.6642827017221724,0,0,0,0.38747918425360695,0,0,9.33850348575561
14,23,female,26,165,155,right,change,catch,anti,1,0.36941470868259785,0,j,1,change,0.3729270852309128,0,0,0,0,0.38747822204641125,0,0,4.926150286481061
14,23,female,27,165,215,right,change,valid,clock,2,0.5123387020212249,1,j,1,change,1.641652597061693,0.6681419585922421,0,0,0,0.38749457956691913,0,0,5.277873214464307
14,23,female,28,75,25,left,change,valid,anti,1,0.529460214662322,0,j,1,change,1.4477704379205534,0.6667282553907155,0,0,0,0.38752665313586476,0,0,4.827457348567805
14,23,female,29,165,165,right,same,valid,clock,1,0.5934367214140366,0,j,0,change,0.9829666896730487,0.6707982957372671,0,0,0,0.3873759073612746,0,0,4.445599698765363
14,23,female,30,75,75,left,same,catch,clock,1,0.30545423871444655,0,j,0,change,0.7626892661301099,0,0,0,0,0.38741439564364555,0,0,5.69046472035734
14,23,female,31,15,215,left,change,catch,anti,1,0.29644509389981977,0,j,1,change,0.6285928812067141,0,0,0,0,0.3874663548258468,0,0,5.518778753954393
14,23,female,32,135,85,right,change,valid,anti,2,0.45618590097183187,1,f,0,same,2.3137718773814413,0.6745940838158351,0,0,0,0.3874823916103196,0,0,5.9872427379023065
14,23,female,33,135,135,left,same,valid,clock,1,0.28147347259255184,0,j,0,change,0.6209327507058333,0.6732129875219566,0,0,0,0.38748976853094064,0,0,3.8831139715030076
14,23,female,34,15,65,left,change,valid,clock,2,0.3854563042514201,1,f,0,same,0.8161401897214091,0.6767733990903768,0,0,0,0.3875244079863478,0,0,4.317682286922718
14,23,female,35,15,15,left,same,valid,anti,3,0.3854713788296067,1,f,1,same,0.9876266585251869,0.6754987571064672,0,0,0,0.38744005449916585,0,0,4.570836401704582
14,23,female,36,165,115,right,change,valid,anti,2,0.3453656258589035,1,j,1,change,1.966111066920348,0.6742579288610713,0,0,0,0.3874958625092404,0,0,5.622652214744448
14,23,female,37,165,165,right,same,valid,anti,3,0.5134343351401185,1,f,1,same,0.8671102227435767,0.6729530860465848,0,0,0,0.3875074089946793,0,0,4.213701379677332
14,23,female,38,105,105,left,same,valid,anti,3,0.4894603044685937,1,f,1,same,0.9224005655214569,0.6716554328030493,0,0,0,0.3874586571701002,0,0,4.592494399954376
14,23,female,39,135,135,right,same,valid,clock,3,0.3934856015348487,1,f,1,same,0.6311135430005379,0.6703512248200648,0,0,0,0.3874804671968377,0,0,4.116728547272942
14,23,female,40,105,55,right,change,valid,anti,3,0.40947363424311334,1,j,1,change,1.0700842765090783,0.6690511512724268,0,0,0,0.3873794354531128,0,0,4.509256432032998
14,23,female,41,105,55,left,change,valid,anti,2,0.3613276789765223,1,j,1,change,4.196050332409868,0.6678117869990499,0,0,0,0.3874406959703265,0,0,7.679458033660012
14,23,female,42,135,85,left,change,valid,anti,1,1.057395331114094,0,j,1,change,1.123239802529497,0.6666237023720851,0,0,0,0.3874798257247676,0,0,5.138853215952622
14,23,female,43,165,215,left,change,valid,clock,2,0.3534247515581228,1,j,1,change,0.8689477175175853,0.6700731695206988,0,0,0,0.38752761534306046,0,0,4.613232848979351
14,23,female,44,45,95,right,change,valid,clock,1,0.2894864123518346,0,j,1,change,0.9208212629800983,0.6688418862448662,0,0,0,0.3874365264064181,0,0,4.546297234744998
14,23,female,45,45,45,right,same,valid,clock,3,0.4335397160593857,1,f,1,same,1.0493557702920953,0.6721965277170531,0,0,0,0.3874403752352009,0,0,4.749515689107284
14,23,female,46,15,15,left,same,valid,clock,3,0.41736277002746647,1,f,1,same,0.9421774489455856,0.671014193377299,0,0,0,0.3874464692135007,0,0,4.453978918683788
14,23,female,47,75,125,right,change,valid,clock,1,0.27346502313048404,0,j,1,change,0.7881483030523668,0.6698182542780138,0,0,0,0.3874329983136704,0,0,4.28647694936808
14,23,female,48,135,135,left,same,valid,anti,2,0.6014980922627728,1,j,0,change,2.0423422429430502,0.6729946997039908,0,0,0,0.38746090231870767,0,0,5.931241644834699
14,23,female,49,105,105,right,same,valid,clock,3,0.49747965894130175,1,f,1,same,1.046194278587791,0.6718672205284351,0,0,0,0.3874483936269826,0,0,4.16167099446011
14,23,female,50,45,45,left,same,valid,clock,1,0.3054019587980292,0,j,0,change,0.8751311808973696,0.6707329748471123,0,0,0,0.38739835885917273,0,0,4.347063279868962
14,23,female,51,75,75,left,same,valid,clock,3,0.4734180674277013,1,f,1,same,0.9582244970224565,0.6737268107182475,0,0,0,0.3874519217206398,0,0,4.785070202628049
14,23,female,52,45,45,right,same,valid,anti,3,0.3934663573927537,1,f,1,same,0.5360057886373397,0.6726459184561873,0,0,0,0.3874798257247676,0,0,3.9862750783231604
14,23,female,53,45,355,left,change,valid,anti,2,1.0734552086196345,1,j,1,change,0.7818015852044482,0.6715645741520406,0,0,0,0.3875337093204507,0,0,5.054968965614535
14,23,female,54,45,85,right,change,catch,clock,1,0.3054231273526966,0,j,1,change,0.6460729763493873,0,0,0,0,0.38745641201967373,0,0,5.706118546477228
14,23,female,55,165,325,left,same,catch,clock,1,0.27247876088222256,0,j,0,change,0.7195368448337831,0,0,0,0,0.38746314746913413,0,0,5.72196000297663
14,23,female,56,105,155,left,change,valid,clock,1,0.2802354328268848,0,j,1,change,0.6971892648471112,0.6704733093631863,0,0,0,0.38755359493461583,0,0,4.00150008082619
14,23,female,57,15,15,right,same,valid,anti,2,0.4174471235146484,1,f,1,same,0.9022888340350619,0.6733613839965678,0,0,0,0.38753627520600276,0,0,4.422519879198262
14,23,female,58,45,45,left,same,valid,anti,3,0.3853434052889497,1,f,1,same,1.3373382529916853,0.6723251694747897,0,0,0,0.387549425369798,0,0,4.998568556612554
14,23,female,1,15,15,left,same,valid,clock,2,2.5683423609752936,1,f,1,same,1.6352269782328221,0.6712850701192794,0,0,0,0.38752761534306046,0,0,7.240997590633924
14,23,female,2,165,165,right,same,valid,anti,1,0.6654742782811809,0,j,0,change,0.460306071654486,0.670232408994475,0,0,0,0.387450318041374,0,0,3.9495502002673675
14,23,female,3,45,85,right,change,catch,clock,1,0.5374609664668242,0,j,1,change,0.7766807191655971,0,0,0,0,0.38747629763201985,0,0,5.61247366760017
14,23,female,4,105,155,left,change,valid,clock,2,1.3199813203518715,1,j,1,change,1.5400412850995053,0.6730250886993645,0,0,0,0.3873807183963436,0,0,5.808225715817571
14,23,female,5,105,105,left,same,valid,anti,2,1.9054602685446298,1,f,1,same,0.6331992871964758,0.6720288243122323,0,0,0,0.3874740524825029,0,0,5.907490525467438
14,23,female,6,75,75,left,same,valid,clock,3,1.35345939101353,1,f,1,same,0.7331119829414092,0.6710257743350868,0,0,0,0.3874836745535504,0,0,5.017688573342639
14,23,female,7,105,155,right,change,valid,clock,2,0.6173934323596768,1,j,1,change,1.0487559945504472,0.6700079386601714,0,0,0,0.38742594212908443,0,0,4.496665631760152
14,23,female,8,45,355,left,change,valid,anti,2,0.5294768929179554,1,j,1,change,0.9378767040689127,0.6690020374210477,0,0,0,0.3874432618558785,0,0,4.682908828955078
14,23,female,9,135,135,right,same,valid,anti,3,1.385248467524434,1,f,1,same,1.1676078120945022,0.6680420313297881,0,0,0,0.3875045223730922,0,0,5.801871941785066
14,23,female,10,15,215,left,change,catch,anti,1,0.3854197403834405,0,j,1,change,0.6481465325905447,0,0,0,0,0.3874576949629045,0,0,6.002392367517132
14,23,female,11,135,65,left,same,catch,anti,2,1.5041227365691157,1,f,1,same,1.541625077938079,0,0,0,0,0.38743075316415343,0,0,7.640647411406462
14,23,female,12,105,55,left,change,valid,anti,2,0.8404545209614298,1,j,1,change,0.7575472315384104,0.6671195501711421,0,0,0,0.38746603408981173,0,0,4.480162497529818
14,23,female,13,45,95,right,change,valid,clock,1,0.3694454993092222,0,j,1,change,0.6515970071504853,0.6662269730333864,0,0,0,0.38748303308238974,0,0,3.761628913937784
14,23,female,14,15,325,right,change,valid,anti,2,0.7694465256627154,1,j,1,change,1.0137573159809108,0.6688374074046803,0,0,0,0.3874198481507847,0,0,4.8728629380930215
14,23,female,15,165,215,right,change,valid,clock,2,0.5054791278034827,1,j,1,change,0.6758112688548863,0.667918394882795,0,0,0,0.3875224835719564,0,0,4.4923437183269925
14,23,female,16,45,45,left,same,valid,clock,2,0.5134481267759838,1,f,1,same,0.9704041141394555,0.6670340543006694,0,0,0,0.3874471106846613,0,0,4.366465544006132
14,23,female,17,75,25,left,change,catch,anti,1,0.9854251287433726,0,j,1,change,0.6838922045826621,0,0,0,0,0.3874512802485697,0,0,6.330066212675774
14,23,female,18,45,45,left,same,valid,anti,2,0.7360402997983329,1,f,1,same,0.665068868367598,0.6661773906122844,0,0,0,0.38749522103807976,0,0,4.758475119891045
14,23,female,19,135,85,left,change,valid,anti,2,0.6655352180605405,1,j,1,change,1.0489923767545406,0.6653419721120901,0,0,0,0.38740477357350755,0,0,4.62277986754907
14,23,female,20,135,85,right,change,valid,anti,2,0.5054576385118708,1,f,0,same,1.2786474704225839,0.6645218215918323,0,0,0,0.38743524346409686,0,0,4.843976840316827
14,23,female,21,45,95,left,change,valid,clock,1,0.39345641458567115,0,j,1,change,0.6836330501446355,0.6636549948209287,0,0,0,0.3873938685601388,0,0,4.094436775298163
14,23,female,22,75,75,left,same,valid,anti,2,0.6334205948242015,1,f,1,same,0.6788621067462373,0.6659002181230584,0,0,0,0.38748688191026304,0,0,4.406410929133017
14,23,female,23,105,55,right,change,valid,anti,1,0.5533854935092677,0,j,1,change,0.8474786325878085,0.6650986614492751,0,0,0,0.38753627520691225,0,0,4.325801069461704
14,23,female,24,15,15,right,same,valid,clock,3,0.8973998599030892,1,f,1,same,0.8350629540018417,0.6674663777711637,0,0,0,0.3875128615009089,0,0,4.891610580685665
14,23,female,25,15,15,left,same,valid,anti,2,1.273416912777975,1,f,1,same,0.754247502751241,0.6666547874925578,0,0,0,0.3874195274147496,0,0,4.975776436960587
14,23,female,26,165,155,right,change,catch,anti,1,0.2974698444304522,0,j,1,change,0.5873004061795655,0,0,0,0,0.3875160688576216,0,0,5.253549581889274
14,23,female,27,165,215,left,change,valid,clock,2,1.3604674658545264,1,j,1,change,1.0658845633752208,0.665865608067862,0,0,0,0.3875099748802313,0,0,5.355180137993557
14,23,female,28,15,65,left,change,valid,clock,1,0.321446120251494,0,j,1,change,0.6327008639327687,0.6650934165173477,0,0,0,0.3874698829185945,0,0,4.370984709888035
14,23,female,29,15,65,right,change,valid,clock,2,0.697437193537553,1,f,0,same,0.7596846141805145,0.6673755336834066,0,0,0,0.38745448760619183,0,0,4.561952023072081
14,23,female,30,15,325,left,change,valid,anti,2,0.3854178159708681,1,j,1,change,1.5970033022931602,0.66659392810325,0,0,0,0.3874718073329859,0,0,4.909717714103863
14,23,female,31,45,355,right,change,valid,anti,2,0.4414387946490024,1,j,1,change,1.6597273361749103,0.6658332341184527,0,0,0,0.38753050196464756,0,0,5.105927452153082
14,23,female,32,15,15,right,same,valid,anti,3,0.4894362492923392,1,f,1,same,0.6893039778915409,0.6650884121677202,0,0,0,0.3874798257247676,0,0,4.091426991575645
14,23,female,33,105,105,right,same,valid,anti,3,0.3614245411554293,1,f,1,same,0.7497222428919486,0.6643547337599403,0,0,0,0.3874641096763298,0,0,4.3311118110277675
14,23,female,34,165,115,right,change,valid,anti,3,0.48137487844178395,1,f,0,same,0.9685893916030182,0.6635770595925563,0,0,0,0.38745448760528234,0,0,4.480879021063629
14,23,female,35,105,135,right,change,catch,anti,1,0.5371520979952038,0,j,1,change,0.4628087722485361,0,0,0,0,0.3875045223730922,0,0,5.737175704142828
14,23,female,36,105,105,left,same,valid,clock,3,0.48009257714875275,1,f,1,same,0.4271541891939705,0.6628009383989623,0,0,0,0.38745256319089094,0,0,4.084298961586683
14,23,female,37,135,185,left,change,valid,clock,2,1.4895202820425766,1,j,1,change,1.097502687764063,0.6620212919944501,0,0,0,0.38745063877649955,0,0,5.706990626819788
14,23,female,38,135,135,left,same,valid,clock,3,0.3774000651737879,1,f,1,same,0.5021415522060124,0.6612331226230711,0,0,0,0.38746186452590337,0,0,4.148340577683484
14,23,female,39,165,165,right,same,valid,clock,3,0.3854646433810558,1,f,1,same,0.6561536991084722,0.6604314492884669,0,0,0,0.3874804671968377,0,0,4.181139650885598
14,23,female,40,165,165,left,same,valid,clock,3,0.38545854940275603,1,f,1,same,0.7051813567904901,0.6596155192251556,0,0,0,0.3874137541724849,0,0,4.287473154422514
14,23,female,41,75,75,right,same,valid,clock,1,0.2814545491874014,0,j,0,change,0.9498138450035185,0.6588261599419961,0,0,0,0.3874329983136704,0,0,4.292101049703888
14,23,female,42,75,25,left,change,valid,anti,3,0.3614219752707868,1,j,1,change,0.7536522173104458,0.6610373025339662,0,0,0,0.3875317849069688,0,0,4.4488567697044346
14,23,female,43,45,45,right,same,valid,anti,3,0.32940934598082094,1,f,1,same,0.8208457030395948,0.6602541314917704,0,0,0,0.3874426203856274,0,0,4.3938207703304215
14,23,female,44,135,135,left,same,valid,anti,3,0.3534359773075266,1,f,1,same,0.7528715466378344,0.6594618418565452,0,0,0,0.3874422996495923,0,0,4.385135568561964
14,23,female,45,135,185,right,change,valid,clock,1,0.3532724021042668,0,j,1,change,0.954172643043421,0.6587005604955148,0,0,0,0.38752376651427767,0,0,4.448398117666329
14,23,female,46,75,125,left,change,valid,clock,3,0.2893776829532726,1,j,1,change,0.8861468481954944,0.6608513278631037,0,0,0,0.38740958460857655,0,0,4.328980522363054
14,23,female,47,75,125,right,change,valid,clock,2,1.017312350377324,1,j,1,change,1.1887208804055263,0.6600852104686536,0,0,0,0.38746218526193843,0,0,5.517904749198351
14,23,female,48,75,75,left,same,catch,clock,1,0.3133706370317668,0,j,0,change,0.595471789371004,0,0,0,0,0.38752280430708197,0,0,5.970544917109692
14,23,female,49,75,25,right,change,valid,anti,2,0.46397368427824404,1,f,0,same,0.7764789764169109,0.6593174515616159,0,0,0,0.38748303308148024,0,0,4.370310844202322
14,23,female,50,165,325,left,same,catch,clock,1,0.2813041241479368,0,j,0,change,0.5808982010566979,0,0,0,0,0.3874702036546296,0,0,5.471935947800375
14,23,female,51,75,75,right,same,valid,anti,3,0.4802157396552502,1,f,1,same,0.6400017704618222,0.6585824180012767,0,0,0,0.38747918425360695,0,0,4.2439586225300445
14,23,female,52,165,165,left,same,valid,anti,2,0.39344390589394607,1,f,1,same,0.5770897854672512,0.6578761030639135,0,0,0,0.38750580531632295,0,0,3.9593724100595864
14,23,female,53,105,105,right,same,valid,clock,3,0.39346218782884534,1,f,1,same,0.7061114902917325,0.6571939643550546,0,0,0,0.3875025979587008,0,0,4.107620615863198
14,23,female,54,105,105,right,change,catch,clock,1,0.34539288839005167,0,j,1,change,0.6442341986348765,0,0,0,0,0.38750099428034446,0,0,5.674927962763832
14,23,female,55,45,165,right,same,catch,anti,1,0.3362628262202634,0,j,0,change,0.4802863015083858,0,0,0,0,0.3874679585051126,0,0,5.409650359608349
14,23,female,56,165,115,left,change,valid,anti,2,2.496392364952044,1,f,0,same,0.7292480800751946,0.6565318103444461,0,0,0,0.387431073899279,0,0,6.3013128994762155
14,23,female,57,135,135,right,same,valid,clock,1,0.32149615502021334,0,j,0,change,0.5335066161351278,0.6558857440947988,0,0,0,0.38747244880414655,0,0,4.109208899004443
14,23,female,58,45,45,right,same,valid,clock,3,0.35342988332922687,1,f,1,same,0.5079410949656449,0.6577876968820574,0,0,0,0.38749746618759673,0,0,3.989674555909005
14,23,female,1,15,325,right,change,valid,anti,2,0.5204222036336432,1,j,1,change,0.9500877532846062,0.6571271003689804,0,0,0,0.3874644304123649,0,0,4.360747147376969
14,23,female,2,135,85,right,change,valid,anti,3,0.4254007271720184,1,j,1,change,0.718692347758406,0.6564853684941933,0,0,0,0.3875138237081046,0,0,4.298614229374834
14,23,female,3,135,185,left,change,valid,clock,2,0.785368807555642,1,f,0,same,0.8814095820416696,0.6558588382913442,0,0,0,0.3874050943095426,0,0,4.607011218051412
14,23,female,4,105,135,right,change,catch,anti,1,0.5534752995026793,0,j,1,change,0.8845662627118145,0,0,0,0,0.38745256319180044,0,0,5.783769619401937
14,23,female,5,135,85,left,change,valid,anti,2,0.9282187109492952,1,j,1,change,1.04104967810963,0.6552440711726333,0,0,0,0.3875102956153569,0,0,5.046958271003859
14,23,female,6,135,185,right,change,valid,clock,2,0.28141221207624767,1,j,1,change,0.7101643064797827,0.6546378124029328,0,0,0,0.3875481424274767,0,0,4.463002175870315
14,23,female,7,75,125,left,change,valid,clock,1,0.35345297629828565,0,j,1,change,0.5998264178451791,0.6539952261116485,0,0,0,0.38753146417093376,0,0,4.208172858575381
14,23,female,8,45,45,right,same,valid,anti,3,0.3374755278655357,1,f,1,same,0.7853049811528763,0.6556613228605923,0,0,0,0.38754493506985455,0,0,4.266550282375647
14,23,female,9,75,25,right,change,valid,anti,3,0.3214717791070143,1,f,0,same,0.8342941505507042,0.6550655823772393,0,0,0,0.387503560166806,0,0,4.206458847044814
14,23,female,10,15,15,right,same,valid,anti,3,0.9374870102055866,1,f,1,same,0.3608905162309384,0.6544770825822943,0,0,0,0.38742401771560253,0,0,4.632977658834534
14,23,female,11,45,355,left,change,valid,anti,2,0.34543105593911605,1,j,1,change,0.664065286391633,0.6538522365028179,0,0,0,0.3874730902762167,0,0,3.766570809460063
14,23,female,12,15,325,left,change,valid,anti,2,1.3213967269566638,1,j,1,change,1.720099735970507,0.6532283468664228,0,0,0,0.38749137221020646,0,0,6.14867350133045
14,23,female,13,165,115,left,change,valid,anti,3,1.3533230783450563,1,f,0,same,0.7219510223785619,0.6526020561227124,0,0,0,0.3874615437898683,0,0,5.426214754354987
14,23,female,14,165,165,right,same,valid,anti,2,0.40146326036847313,1,f,1,same,0.6078082462427119,0.6519700481467504,0,0,0,0.3875099748802313,0,0,3.891940296975008
14,23,female,15,75,75,left,same,valid,clock,3,0.4574611460793676,1,f,1,same,0.8298542063857894,0.6513290140549846,0,0,0,0.3875195969503693,0,0,4.462712230806574
14,23,female,16,165,325,left,same,catch,clock,1,0.35349210605272674,0,j,0,change,0.5709970902862551,0,0,0,0,0.3874413374414871,0,0,5.628265730802923
14,23,female,17,45,85,right,change,catch,clock,1,0.2724514983492554,0,j,1,change,0.5795780529551848,0,0,0,0,0.38748303308238974,0,0,5.565894185447178
14,23,female,18,105,55,left,change,valid,anti,2,0.3522585565860936,1,j,1,change,0.7731458911202935,0.6506756191078481,0,0,0,0.3874243384507281,0,0,4.2998525898765365
14,23,female,19,75,25,left,change,valid,anti,3,1.009469721268033,1,f,0,same,0.7548418259866594,0.6500064701691768,0,0,0,0.38746186452590337,0,0,4.760340518667363
14,23,female,20,165,165,left,same,valid,anti,3,0.3614697648881702,1,f,1,same,0.41350560260980274,0.649336422922392,0,0,0,0.38749329662368837,0,0,4.0492893780037775
14,23,female,21,105,155,left,change,valid,clock,2,0.6414165355927253,1,j,1,change,1.189803042627318,0.6486946143383983,0,0,0,0.38741920667962404,0,0,4.879710324353255
14,23,female,22,105,155,right,change,valid,clock,2,1.0014760256490263,1,f,0,same,1.1789317063903582,0.6480773318642221,0,0,0,0.3874900892678852,0,0,5.410373297855585
14,23,female,23,15,65,right,change,valid,clock,3,0.31337127850383695,1,j,1,change,1.6334908359403926,0.6474810911413225,0,0,0,0.3875061260514485,0,0,5.532666609361513
14,23,female,24,75,75,left,same,valid,anti,1,0.28943541537773854,0,j,0,change,0.4172986228877562,0.6469026625210982,0,0,0,0.38737911471798725,0,0,3.6016276694826956
14,23,female,25,105,105,right,same,valid,clock,1,0.38513845518173184,0,j,0,change,0.6895262477264623,0.6485944925394433,0,0,0,0.3874974661885062,0,0,4.156601446133209
14,23,female,26,45,95,right,change,valid,clock,2,2.017440323916162,1,j,1,change,1.3119276471607009,0.6503815091557025,0,0,0,0.3874015662167949,0,0,6.437823141208355
14,23,female,27,165,165,left,same,valid,clock,1,0.29746375045215245,0,j,0,change,0.5759944730834832,0.6497345914398045,0,0,0,0.38746571335468616,0,0,3.8493395410660014
14,23,female,28,15,15,left,same,valid,clock,1,0.2814596809585055,0,j,0,change,0.7193399131192564,0.6514714121309942,0,0,0,0.3874464692135007,0,0,3.9944843083267187
14,23,female,29,45,45,left,same,valid,anti,3,0.3614389742615458,1,f,1,same,0.6764751917362446,0.6530509720397801,0,0,0,0.38751350297206955,0,0,4.295523299523666
14,23,female,30,105,105,left,same,valid,clock,3,0.4894372114995349,1,f,1,same,0.505872349762285,0.652480669159162,0,0,0,0.3874788635184814,0,0,4.260400816977381
14,23,female,31,135,135,right,same,valid,anti,3,0.30546546446385037,1,f,1,same,0.71842164683585,0.6519040196704244,0,0,0,0.3874814294031239,0,0,3.99258523230219
14,23,female,32,135,135,left,same,valid,clock,3,0.353474144854772,1,f,1,same,0.6709922151021601,0.6513182582733907,0,0,0,0.38745705349083437,0,0,4.0617396960451515
14,23,female,33,45,355,right,change,valid,anti,3,0.2974092253843992,1,j,1,change,0.833657490204132,0.6507205861981535,0,0,0,0.38749714545247116,0,0,4.348339166446749
14,23,female,34,15,15,right,same,valid,clock,3,0.2815052254245529,1,f,1,same,0.6436770807413268,0.6501081464764198,0,0,0,0.387443261856788,0,0,4.170379289198536
14,23,female,35,15,65,left,change,valid,clock,3,0.23346447146468563,1,f,0,same,0.9783949231386941,0.6494887343430669,0,0,0,0.38734094717074186,0,0,4.339983360232509
14,23,female,36,15,15,left,same,valid,anti,3,0.23348211192933377,1,f,1,same,0.4440508661155036,0.6488938371015363,0,0,0,0.38753050196373806,0,0,3.777955002065937
14,23,female,37,165,215,right,change,valid,clock,1,0.30541318454743305,0,j,1,change,0.535671261312018,0.6483220458690121,0,0,0,0.3874653926186511,0,0,3.9615983157518713
14,23,female,38,105,105,right,change,catch,clock,1,0.30546738887824176,0,j,1,change,0.42450170503070694,0,0,0,0,0.38748014646080264,0,0,5.315994896453958
14,23,female,39,75,125,right,change,valid,clock,2,0.48037931485669105,1,j,1,change,0.9769820824203634,0.6499780666775623,0,0,0,0.3874766183680549,0,0,4.781066138265487
14,23,female,40,45,165,right,same,catch,anti,1,0.2734547595882759,0,j,0,change,0.4870823700566689,0,0,0,0,0.38742016888591024,0,0,5.331457564102493
14,23,female,41,165,215,left,change,valid,clock,3,0.3120742233713827,1,j,1,change,0.8967202209751122,0.6493744482629101,0,0,0,0.38746571335468616,0,0,4.317250897418489
14,23,female,42,45,95,left,change,valid,clock,1,0.2654985900462634,0,j,1,change,0.3790136864336091,0.6487959514379256,0,0,0,0.38745416687015677,0,0,3.7464844160949724
14,23,female,43,165,155,right,change,catch,anti,1,0.2734444960478868,0,j,1,change,0.5514873796910251,0,0,0,0,0.38741792373730277,0,0,5.425193852651319
14,23,female,44,75,75,right,same,valid,anti,3,0.40025986005639425,1,j,0,change,0.6011962799802859,0.6504483740985217,0,0,0,0.387445507006305,0,0,4.235055961963553
14,23,female,45,105,55,right,change,valid,anti,3,0.29742365849051566,1,f,0,same,0.9656264352925064,0.6498522718353292,0,0,0,0.38750099428125395,0,0,4.286106820380155
14,23,female,46,75,75,left,same,catch,clock,1,0.28147796289340477,0,j,0,change,0.847490820544408,0,0,0,0,0.3875292190214168,0,0,5.971171313913146
14,23,female,47,135,65,left,same,catch,anti,1,0.2163586748738453,0,j,0,change,0.4387612931041076,0,0,0,0,0.3875632170047538,0,0,5.206913008782976
14,23,female,48,105,105,left,same,valid,anti,3,0.3438899209450028,1,f,1,same,0.5473800384370406,0.6492653980154318,0,0,0,0.38745641201967373,0,0,3.942012270064879
14,23,female,49,165,115,right,change,valid,anti,2,0.5614260165402811,1,f,0,same,1.3640055012583616,0.6487024820409193,0,0,0,0.387484316024711,0,0,5.153583644019818
14,23,female,50,45,45,right,same,valid,clock,2,0.3614235789482336,1,f,1,same,0.8935584085338633,0.6481605921104209,0,0,0,0.3874920136813671,0,0,4.340214610664589
14,23,female,51,75,25,left,change,catch,anti,1,0.20148038765364618,0,j,1,change,0.48532121037897014,0,0,0,0,0.3875167103296917,0,0,5.378587107964449
14,23,female,52,105,105,right,same,valid,anti,3,0.32770752240685397,1,f,1,same,0.8623399208172486,0.6476370145080981,0,0,0,0.38745352539808664,0,0,4.418943355511146
14,23,female,53,75,75,right,same,valid,clock,3,0.40937933795066783,1,f,1,same,0.9164210900398757,0.6471292250218517,0,0,0,0.3875122200297483,0,0,4.570774499716208
14,23,female,54,135,135,right,same,valid,clock,2,0.29749518255084695,1,f,1,same,0.7506449994743889,0.6466348633642829,0,0,0,0.38749361735972343,0,0,4.11065317181874
14,23,female,55,45,45,left,same,valid,clock,3,0.27342204454907915,1,f,1,same,0.9719478150200302,0.646151710169421,0,0,0,0.38752504945750843,0,0,4.5108136038115845
14,23,female,56,165,165,right,same,valid,clock,3,0.2574712171790452,1,f,1,same,0.5219094550302543,0.6456776661938473,0,0,0,0.387431073899279,0,0,4.073118436144796
14,23,female,57,135,135,left,same,valid,anti,3,0.2654751763402601,1,f,1,same,0.6772112801463663,0.6452107333978536,0,0,0,0.38743813008568395,0,0,3.928167713975199
14,23,female,58,15,215,left,change,catch,anti,1,0.3055097259893955,0,j,1,change,0.5555036320110958,0,0,0,0,0.38751061635139195,0,0,5.518944895042296
14,23,female,1,75,75,left,same,valid,clock,1,0.22354572023141372,0,j,0,change,0.4395333039119578,0.6447489976219852,0,0,0,0.3875365959420378,0,0,3.5851101021480645
14,23,female,2,165,215,left,change,valid,clock,1,0.21743762973710545,0,j,1,change,0.4729132294487499,0.6460238239591349,0,0,0,0.3874730902753072,0,0,3.720742811029595
14,23,female,3,165,165,left,same,valid,clock,2,0.5614600145217992,1,f,1,same,0.6438342412293423,0.6474109816845168,0,0,0,0.3874634682042597,0,0,4.351007045921506
14,23,female,4,165,165,right,same,valid,clock,3,0.32149230619143054,1,f,1,same,0.63038868033982,0.6469295488213825,0,0,0,0.38749041000301077,0,0,3.7894864123536536
14,23,female,5,75,75,left,same,catch,clock,1,0.21749407921925012,0,j,0,change,0.3593432872585254,0,0,0,0,0.3875064467874836,0,0,5.144435941385382
14,23,female,6,105,155,left,change,valid,clock,2,0.34449065889202757,1,j,1,change,0.7748105093542108,0.6464600163695059,0,0,0,0.38746186452590337,0,0,4.143967667276229
14,23,female,7,135,135,left,same,valid,clock,3,0.35345297630010464,1,f,1,same,0.5942436924124195,0.6460003795250898,0,0,0,0.3874605815835821,0,0,4.1603255082372925
14,23,female,8,75,25,left,change,valid,anti,3,1.0734648306897725,1,j,1,change,0.7288686497540766,0.6455487356917959,0,0,0,0.38747244880414655,0,0,4.882065165794302
14,23,female,9,45,95,left,change,valid,clock,2,0.43343611843192775,1,j,1,change,0.9317375022128545,0.6451032682736415,0,0,0,0.38743813008568395,0,0,4.621873468487138
14,23,female,10,75,75,right,same,valid,anti,2,0.8056588680847199,1,f,1,same,1.9967794929289084,0.644662231768592,0,0,0,0.38749041000301077,0,0,5.971010625332383
14,23,female,11,45,45,right,same,valid,anti,2,0.33743511516877334,1,f,1,same,1.2416316850940348,0.644193487897694,0,0,0,0.3874615437898683,0,0,4.690510264825207
14,23,female,12,75,75,left,same,valid,anti,3,0.2973729822515452,1,f,1,same,0.7716660166424845,0.6437255551795287,0,0,0,0.38746571335468616,0,0,4.201444144520792
14,23,female,13,15,325,left,change,valid,anti,3,0.4734126149196527,1,j,1,change,0.6519443639044766,0.6432564666113025,0,0,0,0.38743043242902786,0,0,4.347960377595882
14,23,female,14,15,325,right,change,valid,anti,1,0.29733128661246155,0,j,1,change,0.5134500511903752,0.6427842753630786,0,0,0,0.3874329983145799,0,0,3.7536012203354403
14,23,female,15,105,105,right,change,catch,clock,1,0.2975060875633062,0,j,1,change,0.5861431918092421,0,0,0,0,0.3875045223730922,0,0,5.627895601814998
14,23,female,16,75,25,right,change,valid,anti,2,0.43228050773723226,1,f,0,same,1.3134844982032519,0.6440254187373318,0,0,0,0.38750099428034446,0,0,4.8717676257092535
14,23,female,17,15,15,left,same,valid,clock,3,0.945358184790166,1,f,1,same,1.0121991819960385,0.6435663791389235,0,0,0,0.3875417277131419,0,0,4.79509575884822
14,23,female,18,165,165,left,same,valid,anti,3,0.36946538491974934,1,f,1,same,0.5957732809220033,0.6431054840467806,0,0,0,0.3874779013112857,0,0,4.404408576216156
14,23,female,19,75,125,right,change,valid,clock,1,0.31343799152637075,0,j,1,change,0.5100069535510556,0.6426408593206994,0,0,0,0.38750869193700055,0,0,3.739737420104575
14,23,female,20,135,85,left,change,valid,anti,2,0.6494419840455521,1,j,1,change,1.3041302417841507,0.6438637810409119,0,0,0,0.38746571335468616,0,0,4.9702758198645824
14,23,female,21,15,215,left,change,catch,anti,1,0.34543394255888416,0,j,1,change,0.5537315673191188,0,0,0,0,0.3875051638442528,0,0,5.6125227401607845
14,23,female,22,15,65,right,change,valid,clock,3,0.32829735534141946,1,j,1,change,1.1553553879748506,0.6434130432311385,0,0,0,0.3874798257247676,0,0,4.591017412099063
14,23,female,23,45,165,right,same,catch,anti,1,0.2574776318942895,0,j,0,change,0.46168042409044574,0,0,0,0,0.38740958460857655,0,0,5.300168835266959
14,23,female,24,45,45,left,same,valid,clock,1,0.26442091812532453,0,j,0,change,0.8545457227974111,0.6429598013127504,0,0,0,0.3874836745535504,0,0,4.321795722155912
14,23,female,25,135,135,right,same,valid,clock,1,0.2975032009435381,0,j,0,change,0.7990302235666604,0.6441497569480054,0,0,0,0.3874198481507847,0,0,4.351224825455574
14,23,female,26,165,115,right,change,valid,anti,1,0.2574083529834752,0,j,1,change,0.726361138124048,0.6452982838043452,0,0,0,0.3874737317464678,0,0,4.261566049743124
14,23,female,27,105,55,left,change,valid,anti,3,0.2414485450135544,1,j,1,change,0.9009032558533363,0.6465286679514958,0,0,0,0.38745609128454817,0,0,4.257602077341289
14,23,female,28,135,65,left,same,catch,anti,1,0.28147443479974754,0,j,0,change,0.563349789212225,0,0,0,0,0.3874682792402382,0,0,5.581327024675375
14,23,female,29,135,185,left,change,valid,clock,3,0.3682241377973696,1,j,1,change,0.8091330770876084,0.6461093635069478,0,0,0,0.38746859997627325,0,0,4.459266246545667
14,23,female,30,105,105,right,same,valid,clock,1,0.21747034477812122,0,j,0,change,0.5975475907616783,0.6456975192970729,0,0,0,0.3874605815835821,0,0,3.8598224663801375
14,23,female,31,105,155,right,change,valid,clock,2,0.441408004022378,1,f,0,same,0.9641010163468309,0.6469159562030558,0,0,0,0.38749233441649267,0,0,4.542259813871169
14,23,female,32,105,105,left,same,valid,anti,3,0.36944132974349486,1,f,1,same,0.5970045852373005,0.6464966805372784,0,0,0,0.3874872026453886,0,0,4.089145919343537
14,23,female,33,165,155,right,change,catch,anti,1,0.26548127031855984,0,j,1,change,0.41897959864400036,0,0,0,0,0.38750003207314876,0,0,5.268945536514366
14,23,female,34,45,45,right,same,valid,clock,3,0.31192604348143504,1,f,1,same,0.48597839780995855,0.6460861360338555,0,0,0,0.38738392575305625,0,0,3.91046085869948
14,23,female,35,75,75,right,same,valid,clock,3,0.28151067793260154,1,f,1,same,0.6488181531276496,0.6456827792890301,0,0,0,0.3875022772235752,0,0,4.049144084735417
14,23,female,36,135,135,left,same,valid,anti,3,0.46548755673939013,1,f,1,same,0.4507353186436376,0.645285134273444,0,0,0,0.38749810765875736,0,0,3.999571817852484
14,23,female,37,45,355,right,change,valid,anti,2,0.39345833900006255,1,f,0,same,0.9631317530893284,0.6448917814541315,0,0,0,0.3874740524825029,0,0,4.333039753264529
14,23,female,38,165,115,left,change,valid,anti,3,0.36938327658390335,1,f,0,same,0.8157857767819223,0.6444743204011943,0,0,0,0.38746282673309906,0,0,4.274407344591054
14,23,female,39,75,25,left,change,catch,anti,1,0.23346126410979195,0,j,1,change,0.49640872247073276,0,0,0,0,0.387457694961995,0,0,5.5500408617272114
14,23,female,40,105,105,left,same,valid,clock,2,0.2964505464060494,1,f,1,same,0.6800058502194588,0.6440583090007325,0,0,0,0.3874374886136138,0,0,4.107744419840856
14,23,female,41,15,15,right,same,valid,clock,3,0.3134642918539612,1,f,1,same,0.6006195972076966,0.6436421522006593,0,0,0,0.3875099748793218,0,0,4.003467473551609
14,23,female,42,105,105,right,same,valid,anti,3,0.21745398725943232,1,f,1,same,0.4402979377973679,0.6432242754195904,0,0,0,0.38751638959456614,0,0,3.760772870378787
14,23,female,43,165,325,left,same,catch,clock,1,0.20944906588920276,0,j,0,change,0.39445294037614076,0,0,0,0,0.3874949003020447,0,0,5.081876444914087
14,23,female,44,165,215,right,change,valid,clock,1,0.3202112878425396,0,j,1,change,0.6261485545092,0.6428031133174978,0,0,0,0.3874339605217756,0,0,4.01694895683886
14,23,female,45,45,85,right,change,catch,clock,1,0.23349077179227606,0,j,1,change,0.394780411515967,0,0,0,0,0.3874730902753072,0,0,5.409531366667579
14,23,female,46,135,135,right,same,valid,anti,3,0.3441246994698304,1,f,1,same,0.963328043331785,0.6439110454387282,0,0,0,0.38749073073813634,0,0,4.567937271796836
14,23,female,47,135,85,right,change,valid,anti,1,0.29742301701844553,0,j,1,change,0.7905563866188459,0.6435017579351645,0,0,0,0.38739707591685146,0,0,4.259350086855193
14,23,female,48,135,185,right,change,valid,clock,3,0.3775046250084415,1,j,1,change,0.6988939750444843,0.6445720773694786,0,0,0,0.38738392575305625,0,0,4.303173166482338
14,23,female,49,15,15,right,same,valid,anti,3,0.2894501692189806,1,f,1,same,0.8785454123244563,0.64417035402279,0,0,0,0.38742882875067153,0,0,4.116453997521603
14,23,female,50,45,355,left,change,valid,anti,1,0.24139049185578187,0,j,1,change,0.4912618768430548,0.6437688056620183,0,0,0,0.38747148659786035,0,0,3.9328414744604743
14,23,female,51,75,125,left,change,valid,clock,2,0.3374620569684339,1,j,1,change,0.6419223357770534,0.6448165015757947,0,0,0,0.387479504989642,0,0,4.0162799021882165
14,23,female,52,165,165,right,same,valid,anti,3,0.3374485860695131,1,f,1,same,0.7028294019692112,0.6444208613451019,0,0,0,0.387455129076443,0,0,4.301953087914626
14,23,female,53,105,55,right,change,valid,anti,1,0.2894091150519671,0,j,1,change,0.7280934315895138,0.6440262662655725,0,0,0,0.387481750139159,0,0,4.147018184430635
14,23,female,54,15,65,left,change,valid,clock,3,1.0815191453548323,1,f,0,same,1.036896792387779,0.6450535248950272,0,0,0,0.3874689207113988,0,0,5.163361271550457
14,23,female,55,45,45,left,same,valid,anti,3,0.3134812908447202,1,f,1,same,0.4689120517086849,0.6446884873933372,0,0,0,0.3875054845802879,0,0,4.270962322536434
14,23,female,56,15,15,left,same,valid,anti,3,0.305444295909183,1,f,1,same,0.5522093557319749,0.6443001451496542,0,0,0,0.3875170310648173,0,0,3.8032151828583665
14,23,female,57,45,95,right,change,valid,clock,3,0.6732736080703035,1,j,1,change,1.3701103843959572,0.6439123497004221,0,0,0,0.3874974661885062,0,0,5.08312218233732
14,23,female,58,105,135,right,change,catch,anti,1,0.2574673683502624,0,j,1,change,0.5702067975435057,0,0,0,0,0.3875176725368874,0,0,5.472063279868962
14,23,female,1,165,165,left,same,valid,clock,1,0.1361096428536257,0,j,0,change,0.7399109381130984,0.6435237075041326,0,0,0,0.38758406482429564,0,0,3.9210663050480434
14,23,female,2,45,355,left,change,valid,anti,2,0.2174523835783475,1,j,1,change,0.610284325774046,0.6445402405447995,0,0,0,0.3874499973053389,0,0,4.037686764392674
14,23,female,3,165,215,left,change,valid,clock,2,0.20948466755180561,1,j,1,change,0.7678903160904156,0.6441587492779342,0,0,0,0.38751446518017474,0,0,4.012494258830884
14,23,female,4,105,105,left,same,valid,anti,3,0.29749518254902796,1,f,1,same,0.4383715992407815,0.6437772512833315,0,0,0,0.38747725983921555,0,0,4.033918761498171
14,23,female,5,45,355,right,change,valid,anti,2,0.44145354849024443,1,j,1,change,0.6327002224625176,0.6433944005522076,0,0,0,0.38743428125690116,0,0,4.1759742025869855
14,23,female,6,15,15,right,same,valid,anti,1,0.209469592973619,0,j,0,change,0.4352498787629884,0.6430088592801204,0,0,0,0.38746314746913413,0,0,3.5455265068803783
14,23,female,7,75,75,right,same,valid,anti,1,0.16943440185241343,0,j,0,change,0.61760479718032,0.6440220107690353,0,0,0,0.3873836050179307,0,0,3.8670386986850644
14,23,female,8,135,65,left,same,catch,anti,1,0.3774648537837493,0,j,0,change,0.37208226742222905,0,0,0,0,0.3874814294040334,0,0,5.269281026045974
14,23,female,9,135,85,right,change,valid,anti,2,0.2642057044777175,1,j,1,change,0.622978723677079,0.6449988020031823,0,0,0,0.3874827123463547,0,0,4.242849839247356
14,23,female,10,165,165,right,same,valid,clock,2,0.28146962376376905,1,f,1,same,0.6371154699809267,0.64462796571964,0,0,0,0.3874512802485697,0,0,3.99835655032075
14,23,female,11,165,115,right,change,valid,anti,2,0.21748413641398656,1,j,1,change,0.5390649656565074,0.6442586765215026,0,0,0,0.38745609128363867,0,0,3.8833262985308465
14,23,female,12,75,75,left,same,valid,anti,3,0.20941603011306142,1,f,1,same,0.6754398569246405,0.6438896461787773,0,0,0,0.38745737422686943,0,0,3.8938785027548874
14,23,female,13,135,135,left,same,valid,anti,3,0.20948723343644815,1,f,1,same,0.3598458800861408,0.6435196038334546,0,0,0,0.38747437321853795,0,0,3.888272684353069
14,23,female,14,15,15,left,same,valid,clock,3,0.2814320976885938,1,f,1,same,0.5118883891100268,0.6431472878441831,0,0,0,0.387479504989642,0,0,3.6905872413908583
14,23,female,15,165,165,right,same,valid,anti,1,0.4813790480056923,0,j,0,change,1.694113409574129,0.6427714378639386,0,0,0,0.3874538461341217,0,0,5.303816562277461
14,23,female,16,75,125,left,change,valid,clock,2,0.25742888006789144,1,j,1,change,0.6985385998996207,0.6437613931499601,0,0,0,0.38745801569803007,0,0,3.9265717331791166
14,23,female,17,135,135,left,same,valid,clock,3,0.2493989413160307,1,f,1,same,0.7225168001350539,0.6433965592349162,0,0,0,0.38748303308238974,0,0,3.9778833497121013
14,23,female,18,165,165,left,same,valid,anti,3,0.30544269222991716,1,f,1,same,0.703831701001036,0.6430290317867577,0,0,0,0.38756385847591446,0,0,4.174427615086643
14,23,female,19,105,155,left,change,valid,clock,2,0.20154742141312454,1,j,1,change,1.0344069212187605,0.6426575849411551,0,0,0,0.3875311434348987,0,0,4.224383802590637
14,23,female,20,135,135,right,same,valid,clock,1,0.5694716713405796,0,j,0,change,0.7942849390219635,0.6422809837381742,0,0,0,0.3875398032987505,0,0,4.331059531110441
14,23,female,21,45,45,left,same,valid,anti,3,0.36941278426820645,1,f,1,same,0.7890409104784339,0.6432770667079294,0,0,0,0.38750003207314876,0,0,4.2165434186317725
14,23,female,22,105,105,left,same,valid,clock,1,0.22550060426510754,0,j,0,change,0.3943275327219453,0.6429140356237435,0,0,0,0.3874682792402382,0,0,3.811495936920437
14,23,female,23,45,45,right,same,valid,clock,2,0.3293753479974839,1,f,1,same,1.4738574753228022,0.6438693067200097,0,0,0,0.38744005449916585,0,0,5.011581124320401
14,23,female,24,75,125,right,change,valid,clock,1,0.2814535869802057,0,j,1,change,0.562237477837698,0.6435162664798827,0,0,0,0.3874807879319633,0,0,3.6350662896529684
14,23,female,25,45,85,right,change,catch,clock,1,0.2654684408917092,0,j,1,change,0.44061129656620324,0,0,0,0,0.3874483936278921,0,0,5.159816500697161
14,23,female,26,105,105,right,same,valid,clock,3,0.26446742480038665,1,f,1,same,0.46331425169773865,0.6444404113419896,0,0,0,0.38741632005803694,0,0,3.8820664487375325
14,23,female,27,75,75,left,same,valid,clock,1,0.25748981985088903,0,j,0,change,0.34554908667269046,0.6440940713721365,0,0,0,0.3874644304114554,0,0,3.564152911381825
14,23,female,28,105,135,right,change,catch,anti,1,0.2573862222216121,0,j,1,change,0.4938065938131331,0,0,0,0,0.3874426203847179,0,0,5.238023087837973
14,23,female,29,75,75,right,same,valid,clock,2,0.28816626425032155,1,f,1,same,0.9035252701232821,0.6449959265054634,0,0,0,0.38751446517926524,0,0,4.187038300972745
14,23,female,30,165,155,right,change,catch,anti,1,0.24944320284157584,0,j,1,change,0.4671797582432191,0,0,0,0,0.38750484310821776,0,0,5.440949031249147
14,23,female,31,105,105,right,same,valid,anti,3,0.48033826068967755,1,f,1,same,0.6368422031719092,0.6446532184013596,0,0,0,0.38745737422686943,0,0,4.367095148167209
14,23,female,32,45,95,right,change,valid,clock,2,0.2894652437971672,1,f,0,same,0.9693027077792067,0.6443118715981695,0,0,0,0.3874416581775222,0,0,4.3096751204047905
14,23,female,33,135,85,left,change,valid,anti,1,0.233422775825602,0,j,1,change,0.44782207636671956,0.6439707683018879,0,0,0,0.38740958460857655,0,0,3.96253197734859
14,23,female,34,45,95,left,change,valid,clock,3,0.6814578206904116,1,j,1,change,0.7441058402127965,0.6448601094750139,0,0,0,0.3874682792402382,0,0,4.447255657135429
14,23,female,35,135,185,left,change,valid,clock,3,0.39347277210436005,1,j,1,change,0.6051724403369008,0.6445232329517833,0,0,0,0.3874073394590596,0,0,4.112117330247202
14,23,female,36,105,55,right,change,valid,anti,3,0.6651445619918377,1,j,1,change,0.621209545608508,0.644187247316211,0,0,0,0.3874852782319067,0,0,4.360190670953671
14,23,female,37,15,325,right,change,valid,anti,3,0.40146871287470276,1,j,1,change,0.6418617167310003,0.6438510710042306,0,0,0,0.3874698829185945,0,0,4.022198437889529
14,23,female,38,45,45,right,same,valid,anti,3,0.42545813886135875,1,f,1,same,0.6191247636179469,0.6435136336035696,0,0,0,0.3874804671968377,0,0,4.22840262079535
14,23,female,39,165,325,left,same,catch,clock,1,0.265462667648535,0,j,0,change,0.4460679728726973,0,0,0,0,0.38749554177320533,0,0,5.440828113894895
14,23,female,40,75,25,left,change,catch,anti,1,0.3281892674131086,0,j,1,change,0.8813297188553406,0,0,0,0,0.38743075316415343,0,0,5.830961385988303
14,23,female,41,105,155,right,change,valid,clock,2,0.5124224140363367,1,f,0,same,0.7038336254172464,0.6431738696128529,0,0,0,0.38746218526193843,0,0,4.246048215554765
14,23,female,42,15,215,left,change,catch,anti,1,0.2813974582331866,0,j,1,change,0.4784183368446975,0,0,0,0,0.3875385203564292,0,0,5.2845544596375476
14,23,female,43,105,105,right,change,catch,clock,1,0.28850431966930046,0,j,1,change,0.47551760325768555,0,0,0,0,0.3874711658618253,0,0,5.440737987165448
14,23,female,44,105,55,left,change,valid,anti,3,0.3442683890589251,1,j,1,change,0.6660560928230552,0.6428307123468546,0,0,0,0.38751638959365664,0,0,3.9692946893865155
14,23,female,45,15,15,left,same,valid,anti,3,0.35349306825992244,1,f,1,same,0.756706583293635,0.6424830879327775,0,0,0,0.3874355642001319,0,0,4.0693767335769735
14,23,female,46,165,115,left,change,valid,anti,3,0.6651708623176091,1,f,0,same,1.675296808807616,0.6421299093446822,0,0,0,0.38748207087428455,0,0,5.525070946734559
14,23,female,47,75,75,left,same,catch,clock,1,0.2732584693458193,0,j,0,change,0.41955980950842786,0,0,0,0,0.38755455714090203,0,0,5.222520969699872
14,23,female,48,135,185,right,change,valid,clock,1,0.3603786220664915,0,j,1,change,1.0097731372316048,0.6417700704247682,0,0,0,0.38745801569803007,0,0,4.549590228080888
14,23,female,49,135,135,right,same,valid,anti,3,0.3454028311989532,1,f,1,same,0.4842076160621218,0.6427261641645119,0,0,0,0.38752023842152994,0,0,4.0486341149871805
14,23,female,50,15,65,left,change,valid,clock,3,0.7534767748875311,1,j,1,change,0.6709425010722043,0.6423818210184753,0,0,0,0.3874108675518073,0,0,4.3594815243413905
14,23,female,51,165,215,right,change,valid,clock,2,0.44107796699790924,1,j,1,change,0.6103728488251363,0.6420316451842089,0,0,0,0.38746122305474273,0,0,4.053906047534838
14,23,female,52,45,45,left,same,valid,clock,3,0.32946739914223144,1,f,1,same,0.6848463932619779,0.6416745512562696,0,0,0,0.38743716787848825,0,0,4.004531674574537
14,23,female,53,15,15,right,same,valid,clock,3,0.4333738957066089,1,f,1,same,1.397118253966255,0.6413094273320202,0,0,0,0.3875128615009089,0,0,5.113456722491719
14,23,female,54,15,325,left,change,valid,anti,3,0.5774284823546623,1,j,1,change,0.696303392871414,0.6409351290452356,0,0,0,0.38747822204641125,0,0,4.115203769799336
14,23,female,55,75,25,left,change,valid,anti,1,0.24943999548486318,0,j,1,change,0.7141138457736815,0.6405504734258167,0,0,0,0.38746763776907756,0,0,4.027407826977651
14,23,female,56,15,65,right,change,valid,clock,1,0.24149088212652714,0,j,1,change,0.36532180053291086,0.6415809737437344,0,0,0,0.38748014646080264,0,0,3.769147279263052
14,23,female,57,75,25,right,change,valid,anti,3,0.25745453892341175,1,j,1,change,0.7496240977707203,0.64252446169075,0,0,0,0.3874368471424532,0,0,4.048234478316772
14,23,female,58,45,165,right,same,catch,anti,1,0.21754058589431224,0,j,0,change,0.3592525190579181,0,0,0,0,0.38746314746913413,0,0,5.159898288297882
14,23,female,1,75,75,left,same,valid,anti,1,0.19217937335997703,0,j,0,change,0.5892520828565466,0.6421860852225103,0,0,0,0.38744775215673144,0,0,3.5851665516292996
14,23,female,2,105,105,right,change,catch,clock,1,0.1534832537472539,0,j,1,change,0.3680919946946233,0,0,0,0,0.3874692414474339,0,0,5.035118312982377
14,23,female,3,15,65,left,change,valid,clock,2,0.40045775397811667,1,j,1,change,0.8495204359951458,0.6430826138828657,0,0,0,0.3874310739001885,0,0,4.542149160057306
14,23,female,4,45,85,right,change,catch,clock,1,0.24150884332448186,0,j,1,change,0.351549730710758,0,0,0,0,0.3874233762435324,0,0,5.159985207669706
14,23,female,5,105,55,right,change,valid,anti,3,0.28853222367251874,1,j,1,change,0.5861951509905339,0.6427571280057695,0,0,0,0.3874984283957019,0,0,3.9079308955706438
14,23,female,6,105,105,right,same,valid,anti,3,0.24148286373383598,1,j,0,change,0.4880779336417618,0.6424270439147041,0,0,0,0.38745705349083437,0,0,3.894950722168687
14,23,female,7,75,75,right,same,valid,anti,1,0.13740798093022022,0,j,0,change,0.3033967192586715,0.6420913744711698,0,0,0,0.38743171537134913,0,0,3.4810355400804838
14,23,female,8,75,25,left,change,catch,anti,1,0.2414616951791686,0,j,1,change,0.3863117063392565,0,0,0,0,0.38750772972980485,0,0,5.30045268635331
14,23,female,9,105,135,right,change,catch,anti,1,0.29624238894211885,0,j,1,change,0.4076220270999329,0,0,0,0,0.3874586571691907,0,0,5.238186342305198
14,23,female,10,45,45,right,same,valid,anti,3,0.24832736337157257,1,f,1,same,0.7367285985892522,0.6429814904014162,0,0,0,0.38743331904970546,0,0,4.17216578699572
14,23,female,11,15,15,right,same,valid,clock,1,0.1695155479828827,0,j,0,change,0.34004558295600873,0.6426590536612273,0,0,0,0.38742979095695773,0,0,3.837854637453347
14,23,female,12,75,75,left,same,catch,clock,1,0.24147676975553622,0,j,0,change,0.36295348819294304,0,0,0,0,0.38746314746913413,0,0,5.066373685304825
14,23,female,13,75,25,right,change,valid,anti,1,0.24025123867977527,0,j,1,change,0.5489404175714299,0.643510261691649,0,0,0,0.38742947022092267,0,0,3.775297065396444
14,23,female,14,165,155,right,change,catch,anti,1,0.2574548596585373,0,j,1,change,0.4623552519824443,0,0,0,0,0.3874669962979169,0,0,5.3472679092392355
14,23,female,15,105,55,left,change,valid,anti,3,0.23231591695730458,1,j,1,change,0.7406364422440674,0.6443220185476664,0,0,0,0.38746859997627325,0,0,4.174744822684261
14,23,female,16,15,325,right,change,valid,anti,3,0.24141166041044926,1,j,1,change,0.6688439274475968,0.6440183641829068,0,0,0,0.38747341101043276,0,0,4.144066453869527
14,23,female,17,165,165,right,same,valid,anti,1,0.2014133538959868,0,j,0,change,0.4384078423718165,0.6437138505913526,0,0,0,0.3875083712009655,0,0,3.848988014749011
14,23,female,18,165,165,left,same,valid,clock,3,0.49739306030642183,1,f,1,same,1.2093887675800943,0.6445103490986299,0,0,0,0.3875311434348987,0,0,4.642240184845832
14,23,female,19,135,135,left,same,valid,clock,3,0.28946588526923733,1,f,1,same,0.4349095781944925,0.6442109550733219,0,0,0,0.38748784411745874,0,0,3.695615414813801
14,23,female,20,75,75,left,same,valid,clock,3,0.177485188425635,1,f,1,same,0.7795317387208343,0.6439112483497187,0,0,0,0.38750291869564535,0,0,3.99745335861644
14,23,female,21,135,65,left,same,catch,anti,1,0.1774736419392866,0,j,0,change,0.34116751640249277,0,0,0,0,0.3874852782319067,0,0,5.097718222149524
14,23,female,22,165,115,left,change,valid,anti,3,0.2964646587752213,1,f,0,same,0.7229469066969614,0.6436103567088545,0,0,0,0.3874111882869329,0,0,4.324158261253615
14,23,female,23,135,135,right,same,valid,clock,2,0.32914922933559865,1,f,1,same,0.6796867182074493,0.6433074108277883,0,0,0,0.38745609128454817,0,0,4.209248285346803
14,23,female,24,15,65,right,change,valid,clock,2,0.30547508653398836,1,f,0,same,0.7283740753191523,0.6430015398149183,0,0,0,0.3875083712009655,0,0,4.260131398998055
14,23,female,25,15,325,left,change,valid,anti,2,0.2814359465155576,1,f,0,same,1.6498579782364686,0.6426918668007311,0,0,0,0.38741247123016365,0,0,5.184267144605656
14,23,female,26,45,95,left,change,valid,clock,2,0.4014247720842832,1,j,1,change,0.8504560220062558,0.6423775045490693,0,0,0,0.3874669962970074,0,0,4.171420717985711
14,23,female,27,15,15,left,same,valid,clock,3,0.39342883131575945,1,f,1,same,0.4844314895726711,0.6420575510548989,0,0,0,0.38743524346409686,0,0,4.14132223930028
14,23,female,28,135,135,right,same,valid,anti,1,0.36145469030998356,0,j,0,change,0.7399327481398359,0.6417310850951019,0,0,0,0.38755904744084546,0,0,4.18241521672735
14,23,female,29,105,105,left,same,valid,anti,3,0.45737807553450693,1,f,1,same,1.2228420261271822,0.6425995168383393,0,0,0,0.3875013150163795,0,0,4.85609327250404
14,23,female,30,15,15,right,same,valid,anti,1,0.3374537178406172,0,j,0,change,0.5114290956025798,0.6422875193464072,0,0,0,0.38744390332794865,0,0,3.867463673475868
14,23,female,31,135,185,left,change,valid,clock,1,0.3454374706525414,0,j,1,change,0.3642640142243181,0.6431140466299828,0,0,0,0.38743460199202673,0,0,3.6533039624973753
14,23,female,32,45,45,right,same,valid,clock,2,0.35345746659913857,1,f,1,same,1.5463556086415338,0.643895119814756,0,0,0,0.3875176725368874,0,0,4.889919662124157
14,23,female,33,135,185,right,change,valid,clock,1,0.2254608330404153,0,j,1,change,0.7317007459023444,0.6436059611773033,0,0,0,0.3874949003029542,0,0,3.813768990759854
14,23,female,34,165,165,right,same,valid,clock,1,0.20948595049412688,0,j,0,change,0.39253237505909055,0.6443633576617626,0,0,0,0.38746859997627325,0,0,3.733937556609817
14,23,female,35,165,215,right,change,valid,clock,3,0.23344298217489268,1,j,1,change,1.5017332556708425,0.6451012608363298,0,0,0,0.3874461484774656,0,0,4.900559106456058
14,23,female,36,105,105,left,same,valid,clock,3,0.27346566460255417,1,f,1,same,0.6614474416837766,0.6448376733902991,0,0,0,0.3875670658326271,0,0,3.8565836773759656
14,23,female,37,165,115,right,change,valid,anti,1,0.20943976455419033,0,j,1,change,0.5840892004453053,0.6445572064860399,0,0,0,0.3875224835719564,0,0,3.8267369762070302
14,23,female,38,75,25,left,change,valid,anti,3,0.2173962548331474,1,j,1,change,0.8106815890023427,0.6452851513704152,0,0,0,0.3875272946070254,0,0,4.31528767425516
14,23,female,39,135,85,left,change,valid,anti,3,0.20946189531605341,1,j,1,change,0.6927223788843548,0.6450237906243154,0,0,0,0.3874775805752506,0,0,4.008484741962093
14,23,female,40,135,135,left,same,valid,anti,3,0.3614412194110628,1,f,1,same,0.6039905293164338,0.6447641564051407,0,0,0,0.3874634682042597,0,0,4.286117725393524
14,23,female,41,165,215,left,change,valid,clock,1,0.24942876973545935,0,j,1,change,0.46409941266938404,0.6444876648433526,0,0,0,0.3874660340907212,0,0,3.842352634778763
14,23,female,42,165,165,left,same,valid,anti,3,0.5694915569547447,1,f,1,same,0.5376239001980139,0.6452058421368196,0,0,0,0.387506126052358,0,0,4.179903214797378
14,23,female,43,75,125,left,change,valid,clock,3,0.23349269620666746,1,j,1,change,0.47415640098552103,0.6449485034680076,0,0,0,0.38750291869564535,0,0,3.5416472087008515
14,23,female,44,45,45,left,same,valid,anti,3,0.26548479841221706,1,f,1,same,0.45990547277688165,0.6446749745755298,0,0,0,0.3874807879319633,0,0,3.959577360165895
14,23,female,45,135,85,right,change,valid,anti,3,0.3533836973892903,1,j,1,change,0.8628200621460564,0.6444022821183133,0,0,0,0.38741054681577225,0,0,4.227726189224086
14,23,female,46,45,355,right,change,valid,anti,3,0.22542298622829549,1,j,1,change,0.7316295425789576,0.6441296754208753,0,0,0,0.3874291494857971,0,0,4.286691842279652
14,23,female,47,75,75,right,same,valid,clock,3,0.3214515727595426,1,f,1,same,0.57949658608959,0.6438564113812715,0,0,0,0.3875317849069688,0,0,3.923755994550447
14,23,female,48,105,155,right,change,valid,clock,2,0.2574599914296414,1,j,1,change,0.9600170887988497,0.6435817508801929,0,0,0,0.387440695971236,0,0,4.150999476559264
14,23,female,49,15,215,left,change,catch,anti,1,0.23344073702355672,0,j,1,change,0.3840601417905418,0,0,0,0,0.38745705349083437,0,0,5.222542138254539
14,23,female,50,105,105,right,same,valid,clock,1,0.1754347251553554,0,j,0,change,0.31952010243003315,0.6433049552693118,0,0,0,0.38751735180085234,0,0,3.7087514657623615
14,23,female,51,15,15,left,same,valid,anti,1,0.20941506790586573,0,j,0,change,0.35094450246288034,0.6440322967952414,0,0,0,0.3874641096763298,0,0,3.514210515511877
14,23,female,52,45,45,left,same,valid,clock,3,0.32145413864600414,1,f,1,same,0.8217132930822117,0.6447351216243786,0,0,0,0.3874179237363933,0,0,4.243068260253494
14,23,female,53,45,165,right,same,catch,anti,1,0.20945355619005568,0,j,0,change,0.3392190470804053,0,0,0,0,0.3875064467874836,0,0,5.238184738625932
14,23,female,54,165,325,left,same,catch,clock,1,0.23249681188826798,0,j,0,change,0.34668096292625705,0,0,0,0,0.3874949003020447,0,0,5.300592847850567
14,23,female,55,45,355,left,change,valid,anti,1,0.2875219062480028,0,j,1,change,0.377797135959554,0.6444691770896845,0,0,0,0.38748752338142367,0,0,3.8897140705457787
14,23,female,56,45,95,right,change,valid,clock,2,0.21750466349658382,1,j,1,change,1.0414169204759673,0.6451602253984137,0,0,0,0.38754846316351177,0,0,4.283924534740436
14,23,female,57,105,155,left,change,valid,clock,2,0.21746040197103866,1,j,1,change,0.633311544688695,0.6449128181907595,0,0,0,0.3874185652084634,0,0,3.7200990944993464
14,23,female,58,75,125,right,change,valid,clock,2,0.1934106776752742,1,j,1,change,1.5451977527973213,0.6446497054995228,0,0,0,0.3874548083413174,0,0,4.838564425536788
14,23,female,1,45,45,right,same,valid,anti,1,0.20806028034894553,0,j,0,change,0.3615592501464562,0.6443872834664343,0,0,0,0.38746859997627325,0,0,3.505126960015332
14,23,female,2,45,95,right,change,valid,clock,2,0.2734605328332691,1,j,1,change,0.754010799813841,0.6450697906516438,0,0,0,0.3875112578225526,0,0,4.1822429816611475
14,23,female,3,15,65,left,change,valid,clock,2,0.3374363981129136,1,f,0,same,0.8316275540182687,0.6448260189482713,0,0,0,0.38748880632465443,0,0,4.392062176537365
14,23,female,4,15,325,right,change,valid,anti,2,0.22546885143128748,1,j,1,change,0.5869957072736725,0.6445665178088605,0,0,0,0.3874281872786014,0,0,3.983379476508162
14,23,female,5,165,165,right,same,valid,clock,3,0.3055061978975573,1,f,1,same,0.5197027934791549,0.6443074623165541,0,0,0,0.38744390332703915,0,0,3.908226613878469
14,23,female,6,165,165,right,same,valid,anti,3,0.28134100875286094,1,f,1,same,0.41916754975864023,0.6440481684020338,0,0,0,0.3875003528091838,0,0,3.879204203433801
14,23,female,7,45,355,left,change,valid,anti,2,0.345397057955779,1,j,1,change,0.9222113314644957,0.6437879571803313,0,0,0,0.38745320466296107,0,0,4.313164403983137
14,23,female,8,75,125,right,change,valid,clock,2,0.5534772239188896,1,j,1,change,1.2469850845081965,0.6435261518448528,0,0,0,0.38751254076487385,0,0,5.046386399267249
14,23,female,9,75,75,left,same,valid,clock,3,0.27345732547473744,1,f,1,same,0.5462757454533858,0.6432620746177005,0,0,0,0.3874955417741148,0,0,3.9344374552574664
14,23,female,10,45,45,right,same,valid,clock,3,0.28948673308877915,1,f,1,same,0.6257399372389045,0.6429950437345145,0,0,0,0.38740477357350755,0,0,4.1140558567622065
14,23,female,11,135,135,right,same,valid,anti,3,0.22546500260432367,1,f,1,same,0.5024654952540004,0.6427243704427619,0,0,0,0.3874044528374725,0,0,3.906071911507752
14,23,female,12,15,15,right,same,valid,clock,3,0.20948947858596512,1,f,1,same,0.36118431012255314,0.6424493559928882,0,0,0,0.3874435825919136,0,0,3.516701348886272
14,23,female,13,105,55,left,change,valid,anti,2,0.8174446217763034,1,j,1,change,0.6465579287159926,0.642169288602051,0,0,0,0.3874740524825029,0,0,4.565587562126893
14,23,female,14,45,165,right,same,catch,anti,1,0.2334551701314922,0,j,0,change,0.3684005424274801,0,0,0,0,0.38742882874976203,0,0,5.066503903994999
14,23,female,15,105,105,right,same,valid,anti,2,0.29649031763074163,1,f,1,same,1.6109171372936544,0.6418834403702616,0,0,0,0.3874099053437021,0,0,5.225748212219514
14,23,female,16,75,75,left,same,valid,anti,2,0.2494759178807726,1,f,1,same,0.778892191754494,0.6415910641286938,0,0,0,0.38751254076578334,0,0,3.870219113794519
14,23,female,17,15,15,left,same,valid,anti,3,0.25746993423672393,1,f,1,same,0.5189862699462537,0.6412913901996699,0,0,0,0.38747437321853795,0,0,3.856201039696316
14,23,female,18,165,215,right,change,valid,clock,1,0.19344339271628996,0,j,1,change,0.3433568582258886,0.6409836230474021,0,0,0,0.38748303308238974,0,0,3.5779147176626793
14,23,female,19,15,15,right,same,valid,anti,1,0.2894880160311004,0,j,0,change,0.6432585206639487,0.6418072236888313,0,0,0,0.387450318041374,0,0,4.036542379448292
14,23,female,20,15,65,right,change,valid,clock,1,0.24938899851076712,0,j,1,change,0.3609864162026497,0.6425647038024467,0,0,0,0.38750772972980485,0,0,3.7380792165831735
14,23,female,21,135,135,right,same,valid,clock,2,0.28134485757982475,1,f,1,same,0.6982348631991044,0.6432717998811901,0,0,0,0.3874512802485697,0,0,4.0648145891118475
14,23,female,22,45,95,left,change,valid,clock,1,0.22547847350324446,0,j,1,change,0.47276729471013823,0.6430139521121043,0,0,0,0.38749073073904583,0,0,3.847478311852683
14,23,female,23,135,135,left,same,valid,clock,1,0.15347234873479465,0,j,0,change,0.716199910706564,0.6436937648840123,0,0,0,0.387544614334729,0,0,4.008571661333917
14,23,female,24,105,155,right,change,valid,clock,2,0.2734291007345746,1,f,0,same,1.5872352968344785,0.6443451229905066,0,0,0,0.3874012454807598,0,0,5.054139543118254
14,23,female,25,135,185,left,change,valid,clock,2,0.19345012816665985,1,j,1,change,0.6425169797475974,0.6441010751576631,0,0,0,0.3875462180130853,0,0,3.574361286945532
14,23,female,26,75,25,left,change,valid,anti,1,0.20949461035706918,0,j,1,change,0.3820128858769749,0.6438562037957886,0,0,0,0.38751254076487385,0,0,3.7530630258461315
14,23,female,27,105,55,right,change,valid,anti,2,0.19345109037203656,1,j,1,change,0.513006473729547,0.6444967686579165,0,0,0,0.3875051638442528,0,0,3.6638661095275893
14,23,female,28,165,215,left,change,valid,clock,2,0.2973640016516583,1,j,1,change,0.6440359839780285,0.644255783337895,0,0,0,0.38745641201967373,0,0,4.204771135840929
14,23,female,29,75,75,left,same,catch,clock,1,0.2734903612508788,0,j,0,change,0.44266689160940587,0,0,0,0,0.3875664243614665,0,0,5.3471716885323985
14,23,female,30,165,165,left,same,valid,clock,3,0.28785739578052016,1,f,1,same,0.5201306548915454,0.6440143513275778,0,0,0,0.3874997113380232,0,0,4.070837043175743
14,23,female,31,135,85,right,change,valid,anti,3,0.2654196890653111,1,j,1,change,0.6514449784335739,0.6437718731953517,0,0,0,0.38746122305474273,0,0,4.101955140623431
14,23,female,32,165,155,right,change,catch,anti,1,0.21748413641216757,0,j,1,change,0.4284339246005402,0,0,0,0,0.38748110866799834,0,0,5.394059397684032
14,23,female,33,165,115,right,change,valid,anti,2,0.23215779426209338,1,j,1,change,0.8007307641964871,0.6435277502695624,0,0,0,0.38750099428034446,0,0,4.143511581124585
14,23,female,34,75,125,left,change,valid,clock,1,0.20937465520910337,0,j,1,change,0.37748024909524247,0.6432813821242485,0,0,0,0.38751061635139195,0,0,3.7914522014016256
14,23,female,35,105,105,left,same,valid,clock,1,0.29745605279640586,0,j,0,change,0.4635291446102201,0.6439295213628392,0,0,0,0.3874660340907212,0,0,3.663464869177915
14,23,female,36,75,75,right,same,valid,anti,3,0.345452545230728,1,f,1,same,1.1887170315785625,0.6445542497396992,0,0,0,0.3874612230556522,0,0,4.428165468826592
14,23,female,37,105,105,right,same,valid,clock,1,0.2414655440061324,0,j,0,change,0.4705221448748489,0.6443188374572947,0,0,0,0.38751254076487385,0,0,3.7804419866115495
14,23,female,38,75,75,right,same,valid,clock,3,0.2734387228047126,1,f,1,same,0.5237020468066476,0.6449318852898354,0,0,0,0.3875426899194281,0,0,3.7722170405595534
14,23,female,39,165,325,left,same,catch,clock,1,0.2254656440745748,0,j,0,change,0.3996754796280584,0,0,0,0,0.38751927621524374,0,0,5.222484085095857
14,23,female,40,15,215,left,change,catch,anti,2,0.2802152264794131,1,f,0,same,0.8076442220099125,0,0,0,0,0.38745897790431627,0,0,5.7529469195251295
14,23,female,41,75,25,left,change,catch,anti,2,0.3042296698477003,1,f,0,same,2.3218666047432635,0,0,0,0,0.387457694963814,0,0,7.141249753032753
14,23,female,42,165,165,left,same,valid,anti,3,0.36816672610984824,1,f,1,same,0.542704032801339,0.6446984736503569,0,0,0,0.3874365264073276,0,0,4.023852471846112
14,23,female,43,105,105,right,change,catch,clock,1,0.25713155808261945,0,j,1,change,0.4911704671703774,0,0,0,0,0.38750965414510574,0,0,5.269297704300698
14,23,female,44,45,45,left,same,valid,anti,1,0.296115056873532,0,j,0,change,0.7752816700831318,0.6444656695637141,0,0,0,0.38739066120251664,0,0,4.123509541244857
14,23,female,45,135,85,left,change,valid,anti,3,0.34544933787219634,1,j,1,change,0.7495519322401378,0.6450710302827487,0,0,0,0.3874596193763864,0,0,4.419624918853515
14,23,female,46,45,45,left,same,valid,clock,2,1.6894438186518528,1,f,1,same,0.47011865937565744,0.6448545848091813,0,0,0,0.3874625059979735,0,0,5.347742277326688
14,23,female,47,135,185,right,change,valid,clock,1,0.2974813909149816,0,j,1,change,0.4987558662560332,0.6446241368796518,0,0,0,0.3875215213647607,0,0,3.6996406477319397
14,23,female,48,105,135,right,change,catch,anti,1,0.24946597507550905,0,j,1,change,0.3744095255933644,0,0,0,0,0.3874881648534938,0,0,5.160080145435131
14,23,female,49,15,15,left,same,valid,clock,1,0.2084968016242783,0,j,0,change,0.3991190032047598,0.6452224015080616,0,0,0,0.38747341101043276,0,0,3.636062815443438
14,23,female,50,15,325,left,change,valid,anti,3,0.44141313579348207,1,f,0,same,1.021624962473652,0.6458673325560642,0,0,0,0.3874451862702699,0,0,4.528220571217389
14,23,female,51,105,105,left,same,valid,anti,3,0.24945282491171383,1,f,1,same,0.48743582078896,0.6456487507061687,0,0,0,0.38746763776907756,0,0,3.8747318649639055
14,23,female,52,75,25,right,change,valid,anti,2,0.6254445396680239,1,j,1,change,0.5759187794592435,0.6454327901819678,0,0,0,0.3874596193763864,0,0,4.436960362199898
14,23,female,53,165,115,left,change,valid,anti,3,0.2974900507779239,1,f,0,same,0.681126179986677,0.6452189713049691,0,0,0,0.3875500668400491,0,0,3.957571799892321
14,23,female,54,105,155,left,change,valid,clock,2,0.41746283956308616,1,f,0,same,0.7715816631553025,0.6450068260094226,0,0,0,0.38751927621524374,0,0,4.481507021546349
14,23,female,55,45,85,right,change,catch,clock,1,0.2174886267130205,0,j,1,change,0.3494492326717591,0,0,0,0,0.3875128614999994,0,0,5.238114818246686
14,23,female,56,135,65,left,same,catch,anti,1,0.2718350443519739,0,j,0,change,0.3921628875450551,0,0,0,0,0.3874692414483434,0,0,5.26950842765109
14,23,female,57,135,135,left,same,valid,anti,3,0.2399545581665734,1,f,1,same,0.6969137528903957,0.6447958960270086,0,0,0,0.38745801569893956,0,0,4.069381865348987
14,23,female,58,45,355,right,change,valid,anti,2,0.38539568520718603,1,f,0,same,1.321808551583672,0.6445711521170274,0,0,0,0.387404452838382,0,0,4.716418331712703
14,23,female,1,75,75,right,same,valid,clock,1,0.14433939994160028,0,j,0,change,0.7396469726409123,0.644346654223749,0,0,0,0.3875157481215865,0,0,4.128373497995199
14,23,female,2,105,105,left,same,valid,anti,3,0.5374895119421126,1,f,1,same,0.40741547331708716,0.6449312586048022,0,0,0,0.3875083712009655,0,0,4.20990354836249
14,23,female,3,45,355,right,change,valid,anti,2,0.28140772177539475,1,f,0,same,1.1002706367744395,0.6447086112369553,0,0,0,0.3874050943086331,0,0,4.452793479571483
14,23,female,4,135,135,right,same,valid,clock,3,0.4734581593875191,1,f,1,same,0.5144571612581785,0.6444865240079127,0,0,0,0.3874900892660662,0,0,3.965807009486525
14,23,female,5,45,45,right,same,valid,anti,3,0.2815052254263719,1,j,0,change,0.6337124643014249,0.6442644676901201,0,0,0,0.3874499973062484,0,0,3.9460182588409225
14,23,female,6,15,325,right,change,valid,anti,2,0.22550798118754756,1,j,1,change,0.5288970027886535,0.6440419174495472,0,0,0,0.3874281872795109,0,0,3.9820599698759906
14,23,female,7,15,15,left,same,valid,anti,3,0.28148854716891947,1,f,1,same,0.4135591654721793,0.6438183507474357,0,0,0,0.3874621852628479,0,0,3.954636426851721
14,23,female,8,45,45,left,same,valid,clock,3,0.2814349843101809,1,f,1,same,0.4447013180961221,0.6435932452811733,0,0,0,0.3875032394298614,0,0,3.7671292102986627
14,23,female,9,15,15,right,same,valid,anti,1,0.193467768629489,0,j,0,change,0.472826630812051,0.6433660769513031,0,0,0,0.3874432618558785,0,0,3.6699918404829077
14,23,female,10,165,155,right,change,catch,anti,1,0.225471417317749,0,j,1,change,0.3667493950924836,0,0,0,0,0.3874329983136704,0,0,5.346988548453737
14,23,female,11,105,55,left,change,valid,anti,2,0.2802084910272242,1,j,1,change,1.1021905606212385,0.6439636095173753,0,0,0,0.38747437321762845,0,0,4.650678099398647
14,23,female,12,45,45,left,same,valid,anti,3,0.2734987003786955,1,f,1,same,0.39921778979623923,0.643741976345643,0,0,0,0.3875263323989202,0,0,3.7923611663500196
14,23,female,13,15,15,right,same,valid,clock,3,0.24947431420332578,1,f,1,same,0.46087826412622235,0.6435186272143212,0,0,0,0.3874702036555391,0,0,3.5925402651591867
14,23,female,14,105,135,right,change,catch,anti,1,0.24944801387573534,0,j,1,change,0.3300873812313512,0,0,0,0,0.38748110866799834,0,0,5.160138840066793
14,23,female,15,15,325,left,change,valid,anti,1,0.32041752089207876,0,j,1,change,0.5868661300537497,0.6432930462961084,0,0,0,0.3874974661885062,0,0,4.238095574102772
14,23,female,16,165,165,left,same,valid,clock,1,0.24945346638378396,0,j,0,change,0.3369209758584475,0.6438868700472735,0,0,0,0.3874756561617687,0,0,3.6812211177511927
14,23,female,17,75,75,left,same,valid,anti,3,0.26548672282478947,1,f,1,same,0.4811160447388829,0.644458516826371,0,0,0,0.3875593681768805,0,0,3.814220265876429
14,23,female,18,165,165,right,same,valid,clock,2,0.25745646333780314,1,f,1,same,0.5062787218812446,0.6442436185803816,0,0,0,0.38748976853094064,0,0,3.9425517474955996
14,23,female,19,105,105,left,same,valid,clock,3,0.20143516392272431,1,f,1,same,0.37467092518090794,0.644028154648519,0,0,0,0.387549425369798,0,0,3.8184039422267233
14,23,female,20,15,65,left,change,valid,clock,3,0.2174171026526892,1,f,0,same,0.5841446877184353,0.6438116303012327,0,0,0,0.3874499973044294,0,0,3.914693928345514
14,23,female,21,45,95,right,change,valid,clock,1,0.21745013842883054,0,j,1,change,0.659757164594339,0.6435935506662975,0,0,0,0.3874185652093729,0,0,4.00583418221504
14,23,female,22,135,135,right,same,valid,anti,3,0.2653767104839062,1,f,1,same,1.3590482104245893,0.6441660455799898,0,0,0,0.3875433313914982,0,0,4.787246073554343
14,23,female,23,75,25,right,change,valid,anti,3,0.3614572561964451,1,j,1,change,0.5909035509284877,0.6439525531183712,0,0,0,0.3874968247164361,0,0,3.7247026138666115
14,23,female,24,165,325,left,same,catch,clock,1,0.22543549492002057,0,j,0,change,0.36664130716417276,0,0,0,0,0.38746859997627325,0,0,5.0818636154872365
14,23,female,25,45,165,right,same,catch,anti,1,0.14385380610656284,0,j,0,change,0.3476492639765638,0,0,0,0,0.387484316024711,0,0,5.128925484119463
14,23,female,26,45,95,left,change,valid,clock,2,0.34445345355379686,1,f,0,same,0.9206811014828418,0.6437378249069494,0,0,0,0.38748688190935354,0,0,4.357613238942577
14,23,female,27,75,25,left,change,valid,anti,3,0.44946296015950793,1,j,1,change,0.8559313009809557,0.64352137421792,0,0,0,0.38745448760528234,0,0,4.459645356133478
14,23,female,28,105,155,right,change,valid,clock,3,0.24937552761002735,1,j,1,change,0.5419432477447117,0.6433027116512341,0,0,0,0.38739900033215235,0,0,3.933351764944746
14,23,female,29,165,215,right,change,valid,clock,3,0.2414989005173993,1,j,1,change,0.5140065276118548,0.6430813433298407,0,0,0,0.38752376651427767,0,0,3.7525386229917785
14,23,female,30,75,125,right,change,valid,clock,2,0.3934929784554697,1,j,1,change,0.9657075814229756,0.6428567690899313,0,0,0,0.38748784411836823,0,0,4.511693061074766
14,23,female,31,165,215,left,change,valid,clock,2,0.22546115377554088,1,j,1,change,0.5945823893016495,0.6426284806558179,0,0,0,0.3875388410924643,0,0,3.962075249724876
14,23,female,32,135,185,right,change,valid,clock,3,0.3134697443620098,1,j,1,change,0.8680345830052829,0.6423959597891119,0,0,0,0.38751991768731386,0,0,4.262519917687314
14,23,female,33,165,115,left,change,valid,anti,1,0.24148318446896155,0,j,1,change,0.4243705241333373,0.6421586764018322,0,0,0,0.3874621852628479,0,0,3.858145339452676
14,23,female,34,45,355,left,change,valid,anti,1,0.22549483102375234,0,j,1,change,0.36539428679861885,0.6427895775816278,0,0,0,0.3874644304123649,0,0,3.5479512687034003
14,23,female,35,135,185,left,change,valid,clock,3,0.2894110394663585,1,j,1,change,0.6858650498161296,0.6433808032591875,0,0,0,0.38754493506894505,0,0,4.173197593712757
14,23,female,36,15,65,right,change,valid,clock,2,0.21743410164526722,1,j,1,change,0.82484752225173,0.6431648191582156,0,0,0,0.387431073899279,0,0,4.135087458209455
14,23,female,37,105,155,left,change,valid,clock,2,0.5134445986823266,1,f,0,same,1.2705511393814959,0.6429458376259162,0,0,0,0.38748207087519404,0,0,4.9440672236341925
14,23,female,38,105,105,right,same,valid,clock,3,0.32145028981722135,1,f,1,same,0.9530288995683804,0.6427233699814141,0,0,0,0.38749522103898926,0,0,4.50915892838384
14,23,female,39,105,105,right,change,catch,clock,1,0.20942052041391435,0,j,1,change,0.33227864747095737,0,0,0,0,0.38746956218346895,0,0,5.42527147068904
14,23,female,40,165,165,left,same,valid,anti,3,0.32029756574411294,1,f,1,same,0.5487668995629065,0.6424969184700178,0,0,0,0.3874483936269826,0,0,4.033390509815945
14,23,female,41,165,165,right,same,valid,anti,3,0.217483815677042,1,f,1,same,0.49516041916467657,0.6422659744849814,0,0,0,0.3875074089955888,0,0,3.6873096433682804
14,23,female,42,135,85,right,change,valid,anti,3,0.24140588716909406,1,f,0,same,0.6426520094737498,0.6420300167479595,0,0,0,0.3875195969503693,0,0,3.9325826407584827
14,23,female,43,15,15,left,same,valid,clock,3,0.5295105701661669,1,f,1,same,0.8661772026207473,0.6417885094382534,0,0,0,0.38746571335468616,0,0,4.4880618968563795
14,23,female,44,45,45,right,same,valid,clock,3,0.25747538674295356,1,f,1,same,0.49380883896265004,0.6415409002607115,0,0,0,0.38747693910409,0,0,3.873734697699547
14,23,female,45,75,75,left,same,valid,clock,3,0.20147589735461224,1,f,1,same,0.3940369461852242,0.6412866184418407,0,0,0,0.38748207087519404,0,0,3.627783023588563
14,23,female,46,165,115,right,change,valid,anti,2,0.537460324996573,1,j,1,change,0.6443291364012111,0.6410250726433032,0,0,0,0.38750035280827433,0,0,4.30330755473733
14,23,female,47,75,75,left,same,catch,clock,1,0.2734570047396119,0,j,0,change,0.5028863004808954,0,0,0,0,0.38752280430708197,0,0,5.3472345527279685
14,23,female,48,15,215,left,change,catch,anti,1,0.2719325480011321,0,j,1,change,0.3702143027603597,0,0,0,0,0.3874823916103196,0,0,5.097496914522708
14,23,female,49,45,85,right,change,catch,clock,1,0.26432149006177497,0,j,1,change,0.369323619745046,0,0,0,0,0.3874910514750809,0,0,5.316024724874296
14,23,female,50,75,125,left,change,valid,clock,3,0.27974983899002837,1,j,1,change,0.6099004051538941,0.640755648781521,0,0,0,0.3874958625092404,0,0,4.164639403277761
14,23,female,51,135,65,left,same,catch,anti,1,0.2254704551123723,0,j,0,change,0.3734405830728065,0,0,0,0,0.38749233441740216,0,0,5.331393737700637
14,23,female,52,75,25,left,change,catch,anti,1,0.264454595371717,0,j,1,change,0.37251493986877904,0,0,0,0,0.38743139463622356,0,0,5.129043194116093
14,23,female,53,105,105,right,same,valid,anti,2,0.23975089100349578,1,f,1,same,0.8460491136138444,0.6404777077415691,0,0,0,0.3874432618558785,0,0,4.406949444357451
14,23,female,54,135,85,left,change,valid,anti,3,0.24946693728088576,1,j,1,change,0.5734574537691515,0.6401905829729297,0,0,0,0.3875016357524146,0,0,3.934412117137981
14,23,female,55,135,135,left,same,valid,clock,3,0.2733280689917592,1,f,1,same,0.3899931105970609,0.6398929174227139,0,0,0,0.3874156785859668,0,0,3.8821395764753106
14,23,female,56,135,135,left,same,valid,anti,1,0.24146810989077494,0,j,0,change,0.3462489319499582,0.6395988498734685,0,0,0,0.3874785427815368,0,0,3.7727119357296033
14,23,female,57,75,75,right,same,valid,anti,2,0.30545423871444655,1,f,1,same,0.6087640386012936,0.6404155542815215,0,0,0,0.38745256319089094,0,0,3.9400451980727667
14,23,female,58,105,55,right,change,valid,anti,1,0.17751982788104215,0,j,1,change,0.33967673691222444,0.6401282350586607,0,0,0,0.38744294112075295,0,0,3.6717914884447964
