subject,age,gender,ntrial,memory_ori,test_ori,cue,type,trial_type,which_change,pas,pas_rt,vis,test_key,test_acc,test,test_rt,contrast,fix_dur,cue_dur,jitter_dur,target_dur,mask_dur,retention_dur,trial_dur
15,25,female,1,15,185,left,same,catch,clock,1,1.3197331975115958,0,j,1,same,1.3837046621156333,0,0,0,0,0.38743323843755206,0,0,7.288094343083685
15,25,female,2,165,165,right,same,valid,clock,2,2.2003453062598055,1,j,1,same,1.4955520089088168,0.5,0,0,0,0.3874293895851224,0,0,6.660152696827026
15,25,female,3,105,105,right,same,valid,anti,2,2.217352425354875,1,j,1,same,1.582805826650656,0.4069419370673367,0,0,0,0.3873716567904921,0,0,6.885528697688642
15,25,female,4,165,115,left,change,valid,anti,2,1.377476576522895,1,f,1,change,1.1179837013905853,0.3461892688284379,0,0,0,0.38744029466852226,0,0,5.348710570104231
15,25,female,5,45,45,left,same,valid,anti,2,1.6973961226649408,1,f,0,change,1.8821077088678067,0.2977447647674634,0,0,0,0.3875342708279277,0,0,7.028340066687633
15,25,female,6,105,155,right,change,valid,clock,1,1.2653091334559576,0,f,1,change,1.7364141904636199,0.25592670972998877,0,0,0,0.38747044401679887,0,0,6.302928463935132
15,25,female,7,135,185,left,change,valid,clock,2,1.473381012068785,1,j,0,same,1.1245681266218526,0.3347202825714304,0,0,0,0.38745216196548427,0,0,5.975816053051858
15,25,female,8,105,85,right,change,catch,anti,1,1.5693082199950368,0,f,1,change,1.6736432472507659,0,0,0,0,0.38749931041456875,0,0,8.123865390216451
15,25,female,9,15,15,left,same,valid,anti,2,1.5923368695739555,1,f,0,change,1.4622485255686115,0.3124374447223038,0,0,0,0.3874630670479746,0,0,6.246865750725192
15,25,female,10,105,55,right,change,valid,anti,1,1.4972095815910507,0,f,1,change,0.9501246386889761,0.2935167579020408,0,0,0,0.38747333065657585,0,0,5.869600861116851
15,25,female,11,165,165,left,same,valid,clock,2,1.3213997508510147,1,j,1,same,1.5775065975749385,0.3333797996427381,0,0,0,0.3874435020452438,0,0,5.594837982534045
15,25,female,12,135,75,left,same,catch,clock,2,1.3932260829069492,1,j,1,same,1.2370524585830935,0,0,0,0,0.38739058031660534,0,0,7.437540813878513
15,25,female,13,105,105,right,same,valid,clock,1,1.3283969655640249,0,f,0,change,1.2528661125179497,0.31973929993958194,0,0,0,0.3874588974576909,0,0,5.510036525614851
15,25,female,14,75,25,right,change,valid,anti,1,1.361319412460034,0,f,1,change,1.2488212887756163,0.3504247577005395,0,0,0,0.3874983482010066,0,0,6.001971895675524
15,25,female,15,105,65,right,same,catch,clock,2,1.3774194852030632,1,j,1,same,1.4237869377620882,0,0,0,0,0.3874701232789448,0,0,7.640517131886554
15,25,female,16,45,45,left,same,valid,clock,2,1.2962859851713802,1,j,1,same,1.2279579397345515,0.37796267302790815,0,0,0,0.3874961030369377,0,0,5.444856521175097
15,25,female,17,105,155,left,change,valid,clock,2,1.1853716644882297,1,j,0,same,1.7543431098474684,0.3683483695332964,0,0,0,0.38747204770515964,0,0,6.39845924000565
15,25,female,18,75,135,left,change,catch,anti,2,1.0173871933266128,1,j,0,same,1.6029840798610167,0,0,0,0,0.3875336293522196,0,0,7.500134068378429
15,25,female,19,45,95,left,change,valid,clock,2,1.632331263078413,1,f,1,change,2.0341922476400214,0.3596554455459217,0,0,0,0.38750572516892134,0,0,6.64109702573478
15,25,female,20,15,65,left,change,valid,clock,2,1.1454026092651475,1,j,0,same,1.054876945756405,0.35167069794299954,0,0,0,0.38742489925607515,0,0,5.336804784894412
15,25,female,21,165,165,left,same,valid,anti,2,1.0999383542048236,1,j,1,same,0.9950215086728349,0.34420548120428274,0,0,0,0.3874451057345141,0,0,5.4719947835210405
15,25,female,22,75,75,right,same,valid,clock,1,1.1213848044717452,0,f,0,change,1.6174278628732282,0.3371483425156693,0,0,0,0.3874736513944299,0,0,6.187055216927547
15,25,female,23,135,185,left,same,catch,anti,2,1.1933811275339394,1,j,1,same,1.486828262896779,0,0,0,0,0.38752336574452784,0,0,7.890097606911695
15,25,female,24,75,75,left,same,valid,clock,2,1.3683855857889284,1,j,1,same,1.8479273285238378,0.3546308397297643,0,0,0,0.38746627442651516,0,0,6.0499289245153705
15,25,female,25,135,135,right,same,valid,anti,2,1.2333954067789819,1,j,1,same,1.4544282977931289,0.34841202288971396,0,0,0,0.3874441435218614,0,0,6.083020079466223
15,25,female,26,165,215,right,change,valid,clock,2,0.9293943958127784,1,j,0,same,1.4243472666084926,0.34283819128364046,0,0,0,0.38746338778673817,0,0,5.758615015914984
15,25,female,27,15,15,right,same,valid,anti,2,0.9054205320908295,1,j,1,same,1.381009182080561,0.33738310164751395,0,0,0,0.38743484212682233,0,0,5.304909661005695
15,25,female,28,15,325,right,change,valid,anti,1,1.2013944394338978,0,f,1,change,1.4101417917436265,0.3324366377839464,0,0,0,0.38750700811942806,0,0,5.935012438209924
15,25,female,29,135,135,left,same,valid,anti,2,1.0413745280338844,1,j,1,same,1.265724809578387,0.34517811469855436,0,0,0,0.3874245785182211,0,0,5.629714363791209
15,25,female,30,45,45,right,same,valid,anti,2,0.9694330511265434,1,j,1,same,1.2320893626683755,0.340741742483891,0,0,0,0.3874412568820844,0,0,5.733889342911425
15,25,female,31,45,355,right,change,catch,anti,2,0.8493854023272434,1,j,0,same,0.9515737318351967,0,0,0,0,0.38739731581063097,0,0,6.5171581865743065
15,25,female,32,105,105,left,same,valid,anti,2,1.3281288288071664,1,f,0,change,1.108627460540447,0.3363376514039267,0,0,0,0.3874056549911984,0,0,5.70921851606181
15,25,female,33,135,185,right,change,valid,clock,2,0.9614348139020876,1,j,0,same,1.0776146861962843,0.3322813146610414,0,0,0,0.3874252199939292,0,0,5.502139962255569
15,25,female,34,45,355,left,change,valid,anti,2,0.689436373969329,1,f,1,change,1.0728347315362043,0.3281842124614726,0,0,0,0.3874576145071842,0,0,5.033873755056447
15,25,female,35,15,15,left,same,valid,clock,2,0.8574102607854002,1,f,0,change,0.885535433181758,0.32440145187045266,0,0,0,0.38749931041456875,0,0,4.905343234294378
15,25,female,36,45,95,right,change,valid,clock,1,1.3530097388811555,0,f,1,change,1.5522885921272973,0.32058650930851934,0,0,0,0.38747750024685956,0,0,5.853513617883436
15,25,female,37,105,55,left,change,valid,anti,2,0.8413595816555244,1,f,1,change,1.7058315254416812,0.3302625766855241,0,0,0,0.3873822411351284,0,0,5.754561211516375
15,25,female,38,165,115,right,change,valid,anti,2,1.1373257912919144,1,j,0,same,1.340394802508854,0.3268063811391404,0,0,0,0.3874287481094143,0,0,5.684109561449077
15,25,female,39,15,325,left,change,valid,anti,1,1.0653961816815354,0,f,1,change,1.668456276388497,0.32358526400414384,0,0,0,0.3874989896758052,0,0,6.156679427752351
15,25,female,40,135,85,right,change,valid,anti,2,0.8893967949315993,1,j,0,same,1.1561806805539163,0.3321159487490304,0,0,0,0.3874463886850208,0,0,5.649781962478301
15,25,female,41,165,215,left,change,valid,clock,2,0.7213818536838517,1,f,1,change,1.1765901856815617,0.3289320950881084,0,0,0,0.3875166302523212,0,0,5.105412706089737
15,25,female,42,105,105,left,same,valid,clock,2,0.8174107354770968,1,j,1,same,0.9102049770799567,0.32595558448818174,0,0,0,0.3874014854009147,0,0,4.962771328097915
15,25,female,43,15,15,right,same,valid,clock,2,0.9454078693643169,1,j,1,same,1.6379730400676635,0.3231452145557823,0,0,0,0.38745087901406805,0,0,5.560926701160497
15,25,female,44,45,105,right,change,catch,anti,1,0.953272038211253,0,f,1,change,1.456471397248606,0,0,0,0,0.3874665951634597,0,0,6.860809439440345
15,25,female,45,165,165,right,same,valid,anti,1,1.416067100903092,0,f,0,change,1.810309601733934,0.3202401723002646,0,0,0,0.3874216918784441,0,0,6.948678752920387
15,25,female,46,45,355,right,change,valid,anti,2,1.0093956915943636,1,j,0,same,1.1209842030248183,0.32772438250449154,0,0,0,0.3874742928692285,0,0,5.324319426571492
15,25,female,47,45,45,right,same,valid,clock,1,0.9693339431632921,0,f,0,change,1.368615554754797,0.32511567793854673,0,0,0,0.38746146335961384,0,0,5.780449879594926
15,25,female,48,75,125,right,change,valid,clock,2,0.7774323788598849,1,j,0,same,1.2823037437792664,0.3325120229153619,0,0,0,0.38745440712955315,0,0,5.407163421014047
15,25,female,49,75,75,right,same,valid,anti,2,1.2893846710448997,1,j,1,same,1.0757996312804607,0.3299102987821065,0,0,0,0.38753298787742096,0,0,5.376438989907001
15,25,female,50,135,135,right,same,valid,clock,2,1.0093915220040799,1,j,1,same,1.6883731283351153,0.32743016380507406,0,0,0,0.3874681988518205,0,0,6.192181247618464
15,25,female,51,75,75,left,same,valid,anti,2,0.6812546747523811,1,j,1,same,1.1879420568020578,0.3250946277553602,0,0,0,0.3874232955677144,0,0,5.301936422080871
15,25,female,52,105,115,right,same,catch,clock,1,1.0173368375008067,0,f,0,change,1.3718036879708961,0,0,0,0,0.3874813491001987,0,0,7.0160904506110455
15,25,female,53,15,65,right,change,valid,clock,2,1.0481196428781914,1,j,0,same,0.8939531953819824,0.3228541825768424,0,0,0,0.38742714442014403,0,0,4.888129239351656
15,25,female,54,75,25,left,change,valid,anti,2,1.1053982728908522,1,f,1,change,0.9184447298302985,0.3205115275320677,0,0,0,0.3874717269673056,0,0,5.23588465244211
15,25,female,55,75,155,left,change,catch,anti,1,1.1613275591989805,0,f,1,change,1.9080653355622417,0,0,0,0,0.3873697323633678,0,0,7.8744642075917
15,25,female,56,135,85,left,change,valid,anti,2,1.6564369500147222,1,f,1,change,1.091144687364249,0.31823292059086605,0,0,0,0.3875143850882523,0,0,5.872837746471305
15,25,female,57,135,135,left,same,valid,clock,1,3.033458399671872,0,f,0,change,1.2765804994014616,0.31608724252713616,0,0,0,0.38748519795353786,0,0,7.717418818067927
15,25,female,58,75,125,left,change,valid,clock,2,1.2494646886989358,1,f,1,change,1.0167886966883088,0.32216582824610085,0,0,0,0.38756474091496784,0,0,5.794260205554565
15,25,female,1,105,105,right,same,valid,clock,1,1.2066401053043592,0,f,0,change,1.1725270798879137,0.3200206852373778,0,0,0,0.387459538933399,0,0,5.672154061886431
15,25,female,2,75,75,right,same,valid,clock,2,1.1054784573279903,1,j,1,same,1.082706077210787,0.32562006076244354,0,0,0,0.3874540863907896,0,0,5.626254565701856
15,25,female,3,105,55,right,change,valid,anti,1,0.9775056995094928,0,f,1,change,0.9913535517853234,0.32370898878715915,0,0,0,0.38743612507732905,0,0,5.314091420521436
15,25,female,4,45,45,left,same,valid,clock,2,0.8655140207292789,1,j,1,same,1.0746786528507073,0.32889677653142674,0,0,0,0.38747621729635284,0,0,4.76857007414219
15,25,female,5,165,215,left,change,valid,clock,2,0.8573692063537237,1,j,0,same,1.7265608061034072,0.32698871050112355,0,0,0,0.38752112058136845,0,0,5.929470410659633
15,25,female,6,135,185,left,change,valid,clock,2,0.7774436046811388,1,j,0,same,0.8995208819524123,0.3251706816375909,0,0,0,0.3874900090186202,0,0,4.832224649851014
15,25,female,7,15,325,left,change,valid,anti,2,0.8893592686154079,1,j,0,same,1.3773723367548882,0.32341340255040624,0,0,0,0.38750348000485246,0,0,5.266847070958647
15,25,female,8,165,215,right,change,valid,clock,2,1.1213953888182004,1,j,0,same,1.2763970374089695,0.32156992966624665,0,0,0,0.38747204770515964,0,0,5.463812763566239
15,25,female,9,15,15,left,same,valid,anti,3,1.3287985292254234,1,j,1,same,0.9999178911366471,0.3197352598507097,0,0,0,0.38747814172256767,0,0,5.851107764034168
15,25,female,10,135,135,left,same,valid,clock,2,1.5934421318543173,1,j,1,same,1.3014768048869882,0.3179702926900677,0,0,0,0.3874386909801615,0,0,6.288119039891171
15,25,female,11,45,355,right,change,catch,anti,1,0.9214731356478296,0,f,1,change,1.0323236295198512,0,0,0,0,0.3874771795090055,0,0,6.953643773262229
15,25,female,12,15,65,right,change,valid,clock,2,1.000431071533967,1,f,1,change,1.087256383643762,0.31629491401545073,0,0,0,0.3875166302523212,0,0,5.616753351388979
15,25,female,13,135,135,right,same,valid,clock,2,1.0334503812291587,1,j,1,same,1.7015872028205195,0.3146838649983867,0,0,0,0.38741912597743067,0,0,6.382866574379477
15,25,female,14,105,105,left,same,valid,anti,4,1.1694858445598584,1,j,1,same,1.0754994207472919,0.31300631673057977,0,0,0,0.38748808459240536,0,0,5.521275817784954
15,25,female,15,75,25,left,change,valid,anti,2,0.9374327252571675,1,f,1,change,1.3319247600566086,0.31134870234984857,0,0,0,0.3874021268766228,0,0,5.63025256173205
15,25,female,16,105,65,right,same,catch,clock,2,0.9454598288803027,1,j,1,same,1.1338159581146101,0,0,0,0,0.3873928254815837,0,0,6.8292180542002825
15,25,female,17,105,105,right,same,valid,anti,2,0.9041783147922615,1,j,1,same,0.8864569127326831,0.30969043144490277,0,0,0,0.38749289565930667,0,0,5.37938689054954
15,25,female,18,105,115,right,same,catch,clock,2,0.7214383035279752,1,j,1,same,1.2685822621760963,0,0,0,0,0.3874912919700364,0,0,6.376815215285205
15,25,female,19,75,125,left,change,valid,clock,2,1.768085439403876,1,j,0,same,1.6406470306737901,0.30809024368455273,0,0,0,0.38742072966488195,0,0,6.877793465418108
15,25,female,20,135,135,right,same,valid,anti,1,1.7853465827956825,0,f,0,change,2.724772051682521,0.30656767296349985,0,0,0,0.38747333065657585,0,0,7.7011481128429295
15,25,female,21,45,95,right,change,valid,clock,1,1.4813859847863569,0,f,1,change,2.304584432929005,0.31094452388123994,0,0,0,0.38753651599290606,0,0,6.864979992378721
15,25,female,22,135,185,right,change,valid,clock,2,1.1294026066998413,1,f,1,change,1.63469798692131,0.315019902238134,0,0,0,0.3875207998435144,0,0,5.702856682827587
15,25,female,23,15,185,left,same,catch,clock,3,1.833378343530967,1,j,1,same,1.0682074480437223,0,0,0,0,0.38739763654757553,0,0,7.686987220525225
15,25,female,24,165,115,left,change,valid,anti,2,1.0804618751872113,1,f,1,change,1.8056787901259668,0.31362350293438157,0,0,0,0.38748166983805277,0,0,5.843452074724155
15,25,female,25,15,65,left,change,valid,clock,2,1.0174369076776202,1,f,1,change,1.405402570777369,0.3121514498097322,0,0,0,0.38752593164736027,0,0,5.7034022577372525
15,25,female,26,135,85,right,change,valid,anti,2,1.2095238583988248,1,j,0,same,1.1082582913913939,0.3106823383357682,0,0,0,0.3874948200855215,0,0,5.95262607238692
15,25,female,27,135,85,left,change,valid,anti,3,1.257362535008724,1,j,0,same,0.8930291499300438,0.3092143290386775,0,0,0,0.38747750024685956,0,0,5.496749643660223
15,25,female,28,165,165,right,same,valid,clock,1,0.8494566061071964,0,f,0,change,1.0632020147459116,0.30781324113588593,0,0,0,0.3875102154970591,0,0,4.868121939360208
15,25,female,29,105,55,left,change,valid,anti,2,1.193428917458732,1,j,0,same,1.6193750617421756,0.3117471260969491,0,0,0,0.3875108569727672,0,0,6.159216784078126
15,25,female,30,75,25,right,change,valid,anti,1,0.9454210196126951,0,f,1,change,1.8743349502792626,0.3103533602899158,0,0,0,0.3875082910708443,0,0,6.196569581488802
15,25,female,31,45,45,left,same,valid,anti,3,1.4894628027604995,1,j,1,same,1.2707430723858124,0.31402687681040664,0,0,0,0.38742842737065075,0,0,5.890082532237102
15,25,female,32,75,75,right,same,valid,anti,1,1.1054527983078515,0,f,0,change,1.8606163553158694,0.3127022079243269,0,0,0,0.3874239370434225,0,0,6.198971265746877
15,25,female,33,135,75,left,same,catch,clock,3,0.8894301516575069,1,j,1,same,1.8000520878103998,0,0,0,0,0.38749866893795115,0,0,7.640031855673442
15,25,female,34,105,85,right,change,catch,anti,2,0.8562318702988705,1,j,0,same,0.9456660632522471,0,0,0,0,0.38744959606265184,0,0,6.782464433390487
15,25,female,35,105,155,left,change,valid,clock,2,0.7443697695698575,1,j,0,same,2.1059730349361416,0.3161329478086453,0,0,0,0.3875207998426049,0,0,6.068116999998892
15,25,female,36,165,165,left,same,valid,anti,2,0.7214594722199763,1,j,1,same,1.1830803140155695,0.3149184632152305,0,0,0,0.38741784302510496,0,0,4.84627103879302
15,25,female,37,165,115,right,change,valid,anti,2,0.9373961611536288,1,f,1,change,1.3333234973752042,0.31364839026342795,0,0,0,0.3874688403275286,0,0,5.633150748024491
15,25,female,38,165,165,left,same,valid,clock,3,1.1374467094228748,1,j,1,same,1.6101407012347408,0.3123922229216779,0,0,0,0.38750348000485246,0,0,5.991638366906045
15,25,female,39,15,15,right,same,valid,clock,3,1.1774439895671094,1,j,1,same,0.9325684165687562,0.3111367805564198,0,0,0,0.3874422190938276,0,0,5.552736983499926
15,25,female,40,45,355,left,change,valid,anti,2,2.4253591942042476,1,f,1,change,1.8862651115587141,0.3098697398197323,0,0,0,0.38750989475920505,0,0,7.301996079302626
15,25,female,41,105,105,left,same,valid,clock,3,1.4334802739867882,1,j,1,same,0.8978447064801003,0.3086339107743411,0,0,0,0.3874540863907896,0,0,5.192036594894489
15,25,female,42,75,135,left,change,catch,anti,2,1.3054478589465361,1,j,0,same,1.116857270419132,0,0,0,0,0.3875602505859206,0,0,6.766594008875472
15,25,female,43,75,75,left,same,valid,clock,2,0.880153133030035,1,j,1,same,0.9044352257287755,0.3074560317231164,0,0,0,0.3875118191863294,0,0,4.8963439745566575
15,25,female,44,15,15,right,same,valid,anti,1,1.4414140429244071,0,f,0,change,1.5412725334299466,0.3063235452133193,0,0,0,0.38740725868046866,0,0,5.876448932776839
15,25,female,45,75,155,left,change,catch,anti,1,0.9534224642156914,0,j,0,same,1.146364501772041,0,0,0,0,0.38746627442560566,0,0,6.8916284881834144
15,25,female,46,45,105,right,change,catch,anti,1,0.8403149388095699,0,f,1,change,2.130412930606326,0,0,0,0,0.38747204770515964,0,0,8.170348308364737
15,25,female,47,45,45,right,same,valid,anti,1,0.7839192998171711,0,f,0,change,1.6036685342160126,0.3096205796907144,0,0,0,0.38751213992327393,0,0,5.761405755061787
15,25,female,48,165,165,right,same,valid,anti,1,0.5053633766247003,0,f,0,change,1.2250597534421104,0.3128472096382504,0,0,0,0.38749161270789045,0,0,4.899090451893244
15,25,female,49,135,185,left,same,catch,anti,2,0.6814714934707808,1,j,1,same,0.8749372957699961,0,0,0,0,0.3874511997519221,0,0,5.98676828493808
15,25,female,50,45,45,right,same,valid,clock,2,0.7201239202368015,1,j,1,same,0.8601923400128726,0.3158207664061468,0,0,0,0.38743387991326017,0,0,4.647861705580908
15,25,female,51,15,15,left,same,valid,clock,2,0.7294506532143714,1,j,1,same,0.8241330779401324,0.3147691782252825,0,0,0,0.3875397233696276,0,0,4.549351275830304
15,25,female,52,45,95,left,change,valid,clock,2,0.753449534480751,1,f,1,change,0.7712164813010531,0.3136651303589856,0,0,0,0.3874935371350148,0,0,4.552733455384441
15,25,female,53,135,135,left,same,valid,anti,2,0.7933592532199327,1,f,0,change,1.576508782441124,0.31257049229424105,0,0,0,0.3874765380342069,0,0,5.364338196145582
15,25,female,54,15,325,right,change,valid,anti,1,0.8414493882246461,0,f,1,change,1.2781835466666962,0.311475234652,0,0,0,0.3874855186913919,0,0,5.164741171051901
15,25,female,55,75,75,left,same,valid,anti,2,0.7854456907598433,1,j,1,same,1.0839524641005482,0.31435047801394544,0,0,0,0.38752432795809,0,0,4.959638041036669
15,25,female,56,75,125,right,change,valid,clock,1,1.0653839936476288,0,f,1,change,1.2926327822206076,0.313296518609968,0,0,0,0.38745665229362203,0,0,5.653070486609977
15,25,female,57,105,155,right,change,valid,clock,2,0.8494652660265274,1,f,1,change,1.210445017210077,0.3160246158047958,0,0,0,0.38743901171710604,0,0,5.589879697685319
15,25,female,58,45,355,right,change,valid,anti,1,0.7695146468104213,0,f,1,change,1.0421202432989958,0.3150524034904691,0,0,0,0.38750348000394297,0,0,5.0116171212375775
15,25,female,1,165,165,right,same,valid,clock,1,1.0004368448126115,0,f,0,change,1.3143727075266725,0.3179156742504458,0,0,0,0.38748872606811346,0,0,5.273122625739234
15,25,female,2,45,45,right,same,valid,clock,2,1.3854321556273135,1,f,0,change,1.1925039097932313,0.32084967624054317,0,0,0,0.3874605011469612,0,0,6.006623555236729
15,25,female,3,15,325,right,change,valid,anti,1,0.7534245169372298,0,f,1,change,1.6292300497916585,0.3197932894923354,0,0,0,0.3874435020452438,0,0,5.927632583363447
15,25,female,4,135,135,right,same,valid,clock,2,0.9934264798521326,1,f,0,change,1.7468718447426,0.32260557051343686,0,0,0,0.3874146356483834,0,0,5.790319621581148
15,25,female,5,75,25,left,change,valid,anti,2,0.8094458549776391,1,f,1,change,1.395057495448782,0.32160875961016844,0,0,0,0.3874075794183227,0,0,5.313549373728165
15,25,female,6,105,85,right,change,catch,anti,2,1.3453296735015101,1,j,0,same,6.1450578161857266,0,0,0,0,0.3874717269673056,0,0,12.288366328694792
15,25,female,7,45,355,right,change,valid,anti,1,1.1600904737042583,0,f,1,change,1.5341678715722082,0.32060234617387773,0,0,0,0.3875673068168908,0,0,5.6813957993617805
15,25,female,8,45,355,right,change,catch,anti,1,1.3292892579802356,0,f,1,change,1.2459077070716376,0,0,0,0,0.38751566803875903,0,0,7.6403837049829235
15,25,female,9,15,15,left,same,valid,clock,2,0.7603322458189723,1,j,1,same,0.9633306947307574,0.32326535951242247,0,0,0,0.38744735089858295,0,0,4.732529094120764
15,25,female,10,105,115,right,same,catch,clock,1,0.8733602282627544,0,f,0,change,1.0998155116467387,0,0,0,0,0.3874576145071842,0,0,6.501334269032668
15,25,female,11,75,75,left,same,valid,clock,2,0.8002772457102765,1,j,1,same,1.0000317530375469,0.3223077468787472,0,0,0,0.38745665229271253,0,0,5.426222620222688
15,25,female,12,135,85,right,change,valid,anti,2,0.9613264045419783,1,j,0,same,1.814416648598126,0.321345682870098,0,0,0,0.38747333065657585,0,0,5.899666817626894
15,25,female,13,15,65,left,change,valid,clock,2,1.6910570618110796,1,j,0,same,0.9941590448688657,0.32037172913058265,0,0,0,0.3874996311524228,0,0,5.913847274948239
15,25,female,14,75,75,right,same,valid,anti,2,0.9454184537107722,1,j,1,same,0.9200198729113254,0.3193924819420457,0,0,0,0.38745665229362203,0,0,5.328007269200498
15,25,female,15,15,325,left,change,valid,anti,2,1.2014050237794436,1,f,1,change,1.4330626734390535,0.3184550100365513,0,0,0,0.3874896882816756,0,0,5.606888741207513
15,25,female,16,45,355,left,change,valid,anti,2,0.9294197340950632,1,f,1,change,1.4795853630685087,0.3175568289052624,0,0,0,0.38748102836234466,0,0,5.885772779115541
15,25,female,17,45,95,right,change,valid,clock,2,0.8493841193767366,1,j,0,same,1.5259566644808729,0.3166905943576168,0,0,0,0.38746787811396644,0,0,5.723385502397832
15,25,female,18,165,215,right,change,valid,clock,2,0.7931145303182348,1,j,0,same,1.707660372081591,0.31584960331684775,0,0,0,0.3874819905759068,0,0,5.757076436937496
15,25,female,19,135,135,left,same,valid,anti,3,0.7614067172753494,1,j,1,same,1.2674664155501887,0.3150276755338838,0,0,0,0.38741784302601445,0,0,4.855278637711308
15,25,female,20,15,15,right,same,valid,anti,3,0.7534209888217447,1,j,1,same,1.29740279401085,0.3142190508570169,0,0,0,0.3874746136070826,0,0,5.250556800730919
15,25,female,21,105,105,left,same,valid,clock,3,0.7374081567459143,1,j,1,same,0.9175120244581194,0.3133624566993094,0,0,0,0.3875355537793439,0,0,4.839509245586669
15,25,female,22,45,45,right,same,valid,anti,2,0.9054304749615767,1,j,1,same,1.0048941372988338,0.31250756083027753,0,0,0,0.38743259696184396,0,0,5.122595910208474
15,25,female,23,75,25,right,change,valid,anti,2,0.8974001639608105,1,j,0,same,1.3174280553157587,0.3116482644991002,0,0,0,0.38745569008005987,0,0,5.524512703139408
15,25,female,24,105,105,right,same,valid,clock,2,0.7934497012647626,1,j,1,same,1.8760784806781885,0.31077857771010553,0,0,0,0.38744253983259114,0,0,5.961176940752011
15,25,female,25,75,125,left,change,valid,clock,2,0.7374055908439914,1,f,1,change,1.1491337514898987,0.3098926614928437,0,0,0,0.3875031592669984,0,0,4.832685870732348
15,25,female,26,45,95,left,change,valid,clock,2,0.745508709312162,1,j,0,same,1.0467500926934008,0.30902295492087173,0,0,0,0.3875560809947274,0,0,5.170962521152433
15,25,female,27,45,45,left,same,valid,anti,3,0.8814511586970184,1,j,1,same,0.8807724776215764,0.3081915080209324,0,0,0,0.3874723684430137,0,0,5.12630941185671
15,25,female,28,75,135,left,change,catch,anti,2,0.953337468711652,1,f,1,change,1.4797476563699092,0,0,0,0,0.3874223333541522,0,0,6.922597642192159
15,25,female,29,105,155,left,change,valid,clock,2,1.0478967301423836,1,j,0,same,1.526984949702637,0.30739198432556825,0,0,0,0.3874252199939292,0,0,6.295413578496664
15,25,female,30,165,115,right,change,valid,anti,1,0.9934296872297637,0,f,1,change,1.7914838996066464,0.30661860143358965,0,0,0,0.3874925749214526,0,0,6.1359129415113784
15,25,female,31,165,115,left,change,valid,anti,2,0.6894581841370382,1,j,0,same,0.9256225198960237,0.30887755403121486,0,0,0,0.3874890468059675,0,0,4.77213186683457
15,25,female,32,165,165,right,same,valid,anti,2,0.7613323061177653,1,f,0,change,1.197424026850058,0.3080773384916697,0,0,0,0.3874778209847136,0,0,5.141513343332008
15,25,female,33,15,185,left,same,catch,clock,1,0.9053797983970071,0,f,0,change,1.3948746749329075,0,0,0,0,0.38752176205616706,0,0,6.985303475642468
15,25,female,34,165,165,left,same,valid,clock,3,0.895980899425922,1,j,1,same,0.826901686182282,0.30730691735599236,0,0,0,0.3874358043403845,0,0,5.217461155451019
15,25,female,35,75,75,right,same,valid,clock,2,0.6414498372578237,1,f,0,change,0.9520631776385926,0.3065609251849324,0,0,0,0.38749097123218235,0,0,4.605717406951044
15,25,female,36,15,15,left,same,valid,anti,3,0.7454731074221854,1,j,1,same,0.5352811522952834,0.30583441135423295,0,0,0,0.3875474210763059,0,0,4.210536106730615
15,25,female,37,135,185,left,same,catch,anti,3,0.6814727764212876,1,j,1,same,0.8582701586883559,0,0,0,0,0.38748327352641354,0,0,5.721483206812991
15,25,female,38,105,55,right,change,valid,anti,1,1.0081858688072316,0,f,1,change,1.881185908579937,0.30512276702656693,0,0,0,0.38746787811487593,0,0,6.061595118628247
15,25,female,39,75,75,left,same,valid,anti,4,0.8014444103746428,1,j,1,same,0.7776309155260606,0.30722725968523656,0,0,0,0.38750348000485246,0,0,5.016582462316364
15,25,female,40,45,45,left,same,valid,clock,1,0.7213398370395225,0,f,0,change,0.9677825346743703,0.30650686333481225,0,0,0,0.3875307427133521,0,0,4.767674895086202
15,25,female,41,135,85,left,change,valid,anti,4,0.9453992094449859,1,j,0,same,0.7423840821711565,0.3086144382316828,0,0,0,0.38749032975647424,0,0,4.928333716080488
15,25,female,42,165,215,left,change,valid,clock,2,0.785414579198914,1,f,1,change,1.0959964872808996,0.30787041232887885,0,0,0,0.3874871223788432,0,0,4.693807708739769
15,25,female,43,15,15,right,same,valid,clock,2,1.001422792651283,1,j,1,same,1.4080297336722651,0.30715251455968073,0,0,0,0.38755640173349093,0,0,5.65198671376038
15,25,female,44,135,185,right,change,valid,clock,3,1.0094255202038767,1,j,0,same,1.4109599937391977,0.30645608970807714,0,0,0,0.3875544773063666,0,0,6.051899216501624
15,25,female,45,135,75,left,same,catch,clock,2,0.7854238805930436,1,f,0,change,0.8171692199530298,0,0,0,0,0.3874345213880588,0,0,6.579695632706716
15,25,female,46,165,165,left,same,valid,anti,2,0.9443221720875954,1,f,0,change,1.1665806020373566,0.30577682296128395,0,0,0,0.3874120697464605,0,0,5.325894569653428
15,25,female,47,105,105,right,same,valid,anti,1,0.9534275960195373,0,f,0,change,1.3132821991830497,0.30511068103613237,0,0,0,0.38752240353187517,0,0,5.428624625217708
15,25,female,48,105,55,left,change,valid,anti,2,0.7774641318974318,1,j,0,same,1.0539176191514343,0.30708224403162176,0,0,0,0.38753298787742096,0,0,4.9027705968155715
15,25,female,49,45,105,right,change,catch,anti,1,0.6973925945503652,0,f,1,change,1.2527516091413418,0,0,0,0,0.3874758965584988,0,0,6.782204635815106
15,25,female,50,105,155,right,change,valid,clock,1,0.976414870428016,0,f,1,change,1.1829577921953387,0.3064083160347362,0,0,0,0.3874688403275286,0,0,5.671866039388988
15,25,female,51,75,155,left,change,catch,anti,1,0.5374673007872843,0,f,1,change,1.1028952355045476,0,0,0,0,0.38745440712955315,0,0,6.470278515830614
15,25,female,52,105,105,left,same,valid,anti,2,0.8320668468786607,1,j,1,same,1.3993755877518197,0.308382750542912,0,0,0,0.38754998697822884,0,0,5.748171474097944
15,25,female,53,15,65,right,change,valid,clock,1,0.7773804193457181,0,f,1,change,1.8497154414699253,0.30768785641425545,0,0,0,0.38750925328440644,0,0,5.757847490483982
15,25,female,54,105,65,right,same,catch,clock,1,0.7373661401006757,0,f,0,change,1.7354282426267673,0,0,0,0,0.3874858394283365,0,0,6.876086499121811
15,25,female,55,135,185,left,change,valid,clock,1,0.5123522521562336,0,f,1,change,0.9249515365263505,0.30970436870531426,0,0,0,0.3874640292615368,0,0,4.871449593497346
15,25,female,56,135,135,left,same,valid,clock,2,0.9213923097349834,1,f,0,change,1.7803876564721577,0.3117203780702112,0,0,0,0.3874309932734832,0,0,5.906473514118261
15,25,female,57,75,125,right,change,valid,clock,1,0.6094328330254939,0,f,1,change,1.7009778010988157,0.3110122656136731,0,0,0,0.3875586468975598,0,0,5.16072232706756
15,25,female,58,135,135,right,same,valid,anti,1,1.1134276216789658,0,f,0,change,0.9722311672412616,0.3128904238289236,0,0,0,0.3874492753247978,0,0,5.170920504507194
15,25,female,1,135,75,left,same,catch,clock,1,0.7681730008098384,0,f,0,change,1.307140392043948,0,0,0,0,0.387515347300905,0,0,6.531541991627819
15,25,female,2,45,95,right,change,valid,clock,3,0.8324530151276122,1,j,0,same,0.9751790678847101,0.3146459612181206,0,0,0,0.38752336574452784,0,0,5.440463376239677
15,25,female,3,105,105,right,same,valid,anti,2,0.7134217842512953,1,j,1,same,0.9334369743910429,0.3139898716100188,0,0,0,0.38749642377388227,0,0,4.698319205904227
15,25,female,4,135,135,right,same,valid,clock,2,0.8253682390086396,1,f,0,change,1.2775526555160468,0.3133363438779072,0,0,0,0.3875079703329902,0,0,5.145723667751554
15,25,female,5,15,15,right,same,valid,anti,1,0.6814188924799964,0,f,0,change,1.4038530867155714,0.3126816826012633,0,0,0,0.3873909010544594,0,0,5.324288635748417
15,25,female,6,165,215,right,change,valid,clock,3,0.9294437894268412,1,j,0,same,1.2735039829212838,0.31439663520702155,0,0,0,0.387456331555768,0,0,5.1716200335358735
15,25,female,7,75,135,left,change,catch,anti,1,0.6653646852346355,0,f,1,change,1.4811261872109753,0,0,0,0,0.3874162393367442,0,0,6.938322131032692
15,25,female,8,75,75,right,same,valid,anti,2,0.6324130512039119,1,f,0,change,1.080876589095169,0.31375895214607885,0,0,0,0.3874281066337062,0,0,5.071427334297368
15,25,female,9,45,45,right,same,valid,clock,1,0.5533816663737525,0,f,0,change,1.7249891911378654,0.3131222931075124,0,0,0,0.3874961030369377,0,0,5.487864887299111
15,25,female,10,45,355,left,change,valid,anti,3,1.0334385139321967,1,j,0,same,1.2564073779940372,0.3147844515699283,0,0,0,0.38738352408654464,0,0,5.122389996574384
15,25,female,11,105,85,right,change,catch,anti,2,0.6894411850362303,1,f,1,change,1.3325165212017964,0,0,0,0,0.38756538238976646,0,0,7.063265200082242
15,25,female,12,75,75,right,same,valid,clock,1,0.6804765649758338,0,f,0,change,1.0704452353129454,0.3141606758355643,0,0,0,0.38747814172256767,0,0,5.256848713135696
15,25,female,13,75,155,left,change,catch,anti,2,1.7373754414957148,1,f,1,change,1.4030704866099768,0,0,0,0,0.3875073288572821,0,0,7.858817337286382
15,25,female,14,135,135,right,same,valid,anti,2,0.6963803462167562,1,j,1,same,1.9015059278744957,0.3157751003087146,0,0,0,0.38748102836234466,0,0,5.374503337597162
15,25,female,15,15,15,left,same,valid,anti,3,0.6414501579947682,1,j,1,same,0.8119658914647516,0.31519483352900524,0,0,0,0.3874829527885595,0,0,4.142899892617606
15,25,female,16,165,165,left,same,valid,clock,3,0.9453943983799036,1,j,1,same,1.2717274165343042,0.3146224190992121,0,0,0,0.3875397233705371,0,0,5.143373943008555
15,25,female,17,165,165,right,same,valid,clock,3,0.6491879561690439,1,j,1,same,1.0117576043712688,0.31401569481820435,0,0,0,0.38751278139898204,0,0,4.921979580552033
15,25,female,18,135,185,right,change,valid,clock,3,0.7375011706926671,1,j,0,same,0.895872169328868,0.3134109589236994,0,0,0,0.3874730099187218,0,0,4.8707025952817276
15,25,female,19,135,135,left,same,valid,clock,1,0.7373359907523991,0,f,0,change,1.4225328531674677,0.3128050249682557,0,0,0,0.3875156680396685,0,0,5.210233971772141
15,25,female,20,15,325,left,change,valid,anti,2,0.7614554694118851,1,j,0,same,1.3930362061601045,0.31439213742663813,0,0,0,0.38751470582519687,0,0,5.142612832332816
15,25,female,21,105,155,right,change,valid,clock,2,0.7534347805449215,1,f,1,change,1.2251030530387652,0.31380123164864326,0,0,0,0.3874884053302594,0,0,4.936871113460256
15,25,female,22,135,135,left,same,valid,anti,2,0.9774258358111183,1,f,0,change,1.171864756438481,0.3132110012193577,0,0,0,0.38744253983259114,0,0,5.358177144740694
15,25,female,23,45,45,left,same,valid,clock,1,0.7374886619209065,0,f,0,change,1.118412848497428,0.31261842651306965,0,0,0,0.38751695099017525,0,0,5.309857361508875
15,25,female,24,45,355,right,change,catch,anti,1,0.6334541659343813,0,f,1,change,0.7110605129500982,0,0,0,0,0.38741784302601445,0,0,6.049148248835991
15,25,female,25,75,75,left,same,valid,anti,3,0.7761821431186036,1,j,1,same,0.6459927667219745,0.31417338310797766,0,0,0,0.3874451057345141,0,0,4.718704976438858
15,25,female,26,105,105,right,same,valid,clock,2,0.7614493753953866,1,j,1,same,0.9811630720514586,0.31359706901317624,0,0,0,0.3875227242697292,0,0,4.622617078899566
15,25,female,27,165,115,right,change,valid,anti,3,0.705479355393436,1,j,0,same,0.9509043521547937,0.31302024105632,0,0,0,0.38751406435039826,0,0,4.835437159135836
15,25,female,28,105,105,left,same,valid,anti,3,0.8652805236497443,1,j,1,same,1.6412583568217087,0.3124400293702351,0,0,0,0.38745569008005987,0,0,5.742041534254895
15,25,female,29,165,165,left,same,valid,anti,2,0.7614214712111789,1,f,0,change,0.8836212703017736,0.3118535880723522,0,0,0,0.387462425573176,0,0,4.744432634167424
15,25,female,30,105,65,right,same,catch,clock,1,0.6814593054359648,0,f,0,change,1.7321631323502515,0,0,0,0,0.38750283852914436,0,0,6.922842685831711
15,25,female,31,105,115,right,same,catch,clock,2,1.3283517415411552,1,j,1,same,2.573667687467605,0,0,0,0,0.3874518412267207,0,0,8.700700362946918
15,25,female,32,165,115,left,change,valid,anti,3,1.4543644709810906,1,j,0,same,1.237996069037763,0.3112580683616697,0,0,0,0.38745216196457477,0,0,5.774388256892962
15,25,female,33,75,25,left,change,valid,anti,3,1.0094826115237083,1,f,1,change,0.8830093026772374,0.3106505923372311,0,0,0,0.3875201583668968,0,0,5.256512579975606
15,25,female,34,135,185,left,change,valid,clock,3,1.7374379853563369,1,f,1,change,0.8067397905970211,0.31002822715343376,0,0,0,0.38746787811487593,0,0,5.727055383710649
15,25,female,35,135,185,left,same,catch,anti,2,0.8411004255549415,1,j,1,same,1.4111639829470732,0,0,0,0,0.3875522321422977,0,0,6.595130174621772
15,25,female,36,45,355,right,change,valid,anti,2,0.6723753709329685,1,j,0,same,1.4632944513650727,0.3094060884940615,0,0,0,0.38740437204069167,0,0,5.783884339401993
15,25,female,37,75,75,left,same,valid,clock,1,0.8174588461397434,0,f,0,change,1.310961982313529,0.3088102266786183,0,0,0,0.38753587451719795,0,0,5.298574128266409
15,25,female,38,105,105,left,same,valid,clock,3,0.9453905495265644,1,j,1,same,0.4709100484569717,0.3105096233618975,0,0,0,0.38751887541729957,0,0,4.585014426784255
15,25,female,39,105,55,right,change,valid,anti,1,0.7694963647591067,0,f,1,change,0.8397327997972752,0.30989608983373285,0,0,0,0.38749449934766744,0,0,4.277314026630847
15,25,female,40,105,155,left,change,valid,clock,1,0.8413509217361934,0,f,1,change,0.9151536397957898,0.3115393376499673,0,0,0,0.38748519795353786,0,0,4.825545927721578
15,25,female,41,45,45,left,same,valid,anti,3,0.8815069670654339,1,j,1,same,1.0579152944437737,0.3130382614684008,0,0,0,0.38753362935312907,0,0,4.908194272136825
15,25,female,42,75,125,left,change,valid,clock,2,0.7534511381700213,1,f,1,change,1.0922970980927857,0.31249599801337213,0,0,0,0.38750572516892134,0,0,5.128537897730894
15,25,female,43,135,85,left,change,valid,anti,3,0.6814525699428486,1,f,1,change,1.065567455638302,0.3119477565923604,0,0,0,0.3874322762248994,0,0,5.050760918234118
15,25,female,44,135,85,right,change,valid,anti,1,0.6894402228226681,0,f,1,change,1.2802558332568879,0.31139102769898913,0,0,0,0.38740437204069167,0,0,5.354574618353581
15,25,female,45,45,45,right,same,valid,anti,1,0.5614414852461778,0,f,0,change,1.6491555616566984,0.3128675808307929,0,0,0,0.38743676655303716,0,0,5.37842916763384
15,25,female,46,15,15,left,same,valid,clock,3,0.7454727866852409,1,j,1,same,1.1210355210641865,0.3142520654870019,0,0,0,0.3874560108179139,0,0,4.738906322767434
15,25,female,47,165,165,right,same,valid,anti,1,0.6494426219405796,0,f,0,change,0.6602999154538338,0.3137371359034318,0,0,0,0.3875413270588979,0,0,4.522943974812733
15,25,female,48,15,185,left,same,catch,clock,3,0.7294358992785419,1,j,1,same,0.8448309263039846,0,0,0,0,0.3875326671395669,0,0,6.017967087175748
15,25,female,49,15,15,right,same,valid,clock,3,0.8804405140526796,1,j,1,same,1.2317891521370257,0.3150773839344338,0,0,0,0.3874617840974679,0,0,5.302806262852755
15,25,female,50,75,25,right,change,valid,anti,3,0.5134453264026888,1,j,0,same,0.847373735171459,0.3146019426232788,0,0,0,0.3874864809040446,0,0,4.565114894676299
15,25,female,51,75,125,right,change,valid,clock,2,0.601404767189706,1,j,0,same,1.8327891482867926,0.3140970235492916,0,0,0,0.3874807076244906,0,0,5.385070363447085
15,25,female,52,45,95,left,change,valid,clock,3,0.5774629772413391,1,j,0,same,0.8843570426952283,0.31359321161532844,0,0,0,0.3874787831982758,0,0,4.297499336073088
15,25,female,53,15,325,right,change,valid,anti,3,0.5534512664653448,1,f,1,change,0.948123235139974,0.31308824911320776,0,0,0,0.3874961030360282,0,0,4.638603289743514
15,25,female,54,15,65,right,change,valid,clock,2,0.6573754286655458,1,j,0,same,0.9653138162275354,0.31257990771256156,0,0,0,0.38755832615879626,0,0,4.868109109849684
15,25,female,55,15,65,left,change,valid,clock,2,0.513470023208356,1,j,0,same,1.0121383200776108,0.31206596952756355,0,0,0,0.3874617840974679,0,0,4.583616972415257
15,25,female,56,45,105,right,change,catch,anti,1,0.8653873293187644,0,f,1,change,0.859218259471163,0,0,0,0,0.387453444915991,0,0,6.532838092867678
15,25,female,57,105,55,left,change,valid,anti,2,0.6882069861812852,1,j,0,same,1.6694887311996354,0.31154420879069955,0,0,0,0.3874919334457445,0,0,5.6504070803503055
15,25,female,58,165,215,left,change,valid,clock,2,0.529439555688441,1,j,0,same,0.943378561632926,0.311012373890318,0,0,0,0.38746434999939083,0,0,4.361820725560392
15,25,female,1,45,45,right,same,valid,anti,1,0.7605054442028631,0,f,0,change,2.13343844978408,0.3104681695427136,0,0,0,0.3874040513028376,0,0,5.865390536697305
15,25,female,2,45,105,right,change,catch,anti,2,0.5374371514380982,1,j,0,same,0.7771020189802584,0,0,0,0,0.3875291390240818,0,0,5.674893482993866
15,25,female,3,135,135,right,same,valid,anti,2,0.5043799946888612,1,f,0,change,1.0213210418069139,0.31192177577724944,0,0,0,0.38746499147509894,0,0,4.8273622655888175
15,25,female,4,15,325,left,change,valid,anti,3,0.8015079164497365,1,j,0,same,1.1113287138550731,0.31140748073291047,0,0,0,0.38750764959513617,0,0,5.021552614461143
15,25,female,5,75,75,left,same,valid,clock,4,0.8093765756239009,1,j,1,same,1.3768100834813595,0.3108826159372925,0,0,0,0.3875060459058659,0,0,5.38105665126659
15,25,female,6,105,105,left,same,valid,anti,4,0.6014365202263434,1,j,1,same,0.7964069033032501,0.31034495299158227,0,0,0,0.38749642377388227,0,0,4.494009260340135
15,25,female,7,135,85,right,change,valid,anti,4,0.6894087905238848,1,j,0,same,1.1580970885997885,0.3097935881848326,0,0,0,0.3874303517977751,0,0,4.936123153031986
15,25,female,8,45,45,left,same,valid,anti,4,0.8494283811851346,1,j,1,same,1.1011597235492445,0.30925585161902425,0,0,0,0.3874871223788432,0,0,5.213129592162659
15,25,female,9,135,185,left,change,valid,clock,3,0.6814432685487191,1,j,0,same,1.1356085613888354,0.3087399323846851,0,0,0,0.3874511997510126,0,0,5.201630502416265
15,25,female,10,135,135,right,same,valid,clock,3,0.6814063837073263,1,j,1,same,1.66762749004738,0.3082433321830243,0,0,0,0.3875910414099053,0,0,5.485609459454281
15,25,female,11,105,115,right,same,catch,clock,3,0.6094081362189172,1,f,0,change,0.8881811988658228,0,0,0,0,0.38743484212591284,0,0,5.846372712658194
15,25,female,12,105,55,left,change,valid,anti,4,0.7123764999305422,1,j,0,same,0.9576504292117534,0.30776373527494205,0,0,0,0.3874451057345141,0,0,4.917309959676459
15,25,female,13,15,185,left,same,catch,clock,1,0.6734726147697074,0,f,0,change,0.6501681307281615,0,0,0,0,0.3874967445117363,0,0,5.8777957105812675
15,25,female,14,165,165,left,same,valid,clock,3,1.0319788364404303,1,f,0,change,1.41356502572944,0.30729898589050875,0,0,0,0.38747814172256767,0,0,5.5188757372152395
15,25,female,15,75,75,right,same,valid,clock,1,0.8094080079226842,0,j,1,same,1.174897973322004,0.306847067957381,0,0,0,0.3874746136070826,0,0,5.619093453999085
15,25,female,16,165,115,left,change,valid,anti,2,0.7773916451660625,1,j,0,same,1.747999879402414,0.30817074955334905,0,0,0,0.38741656007550773,0,0,5.642550609209138
15,25,female,17,75,135,left,change,catch,anti,1,0.6414668363586316,0,f,1,change,0.6969721073628534,0,0,0,0,0.38747493434493663,0,0,5.752904601046794
15,25,female,18,135,75,left,same,catch,clock,3,0.6319255298267308,1,j,1,same,0.7746294516800845,0,0,0,0,0.3873992402368458,0,0,6.111789293261609
15,25,female,19,135,135,left,same,valid,anti,2,0.6804137003773576,1,j,1,same,1.82019441839293,0.307702311920558,0,0,0,0.387474292870138,0,0,5.83066843029701
15,25,female,20,135,185,right,change,valid,clock,3,1.8734150744176077,1,f,1,change,1.4475115882551108,0.30724812387371425,0,0,0,0.38755896763541386,0,0,6.202292184390899
15,25,female,21,105,155,right,change,valid,clock,3,0.7534299694789297,1,j,0,same,0.9545873837159888,0.30680625712457704,0,0,0,0.3874723684430137,0,0,4.799839117945339
15,25,female,22,45,95,left,change,valid,clock,1,0.6094418136817694,0,f,1,change,0.698872799257515,0.3063748975050592,0,0,0,0.38742137114059005,0,0,4.329634692534455
15,25,female,23,75,75,left,same,valid,anti,4,1.0494940041280643,1,j,1,same,0.7496571313477034,0.3076433088847983,0,0,0,0.38745665229271253,0,0,4.7744405371458924
15,25,female,24,75,155,left,change,catch,anti,3,0.8334482643595038,1,f,1,change,0.8415590805343527,0,0,0,0,0.3874524827024288,0,0,6.267711459189741
15,25,female,25,135,85,left,change,valid,anti,3,0.6963364051453027,1,f,1,change,1.0009317431586169,0.30719924678006305,0,0,0,0.38746787811487593,0,0,5.079548734817763
15,25,female,26,135,135,left,same,valid,clock,2,1.8974094653558495,1,f,0,change,1.3856505780331645,0.30676702570816644,0,0,0,0.38743259696184396,0,0,6.472346312093578
15,25,female,27,45,95,right,change,valid,clock,2,1.0734710752285537,1,j,0,same,1.5799304127385767,0.3063449069710946,0,0,0,0.3874954615603201,0,0,5.852281984930414
15,25,female,28,45,355,right,change,catch,anti,2,0.6652546721870749,1,f,1,change,1.8391772820168626,0,0,0,0,0.3875195168920982,0,0,7.500135992804644
15,25,female,29,165,165,left,same,valid,anti,1,0.896382142348557,0,f,0,change,0.7242344952164785,0.30593124478881284,0,0,0,0.3874046927785457,0,0,5.176774930623651
15,25,female,30,45,45,left,same,valid,clock,2,0.761342569725457,1,j,1,same,1.9031381622753543,0.307152240817403,0,0,0,0.3875663446033286,0,0,5.564142097086005
15,25,female,31,45,355,left,change,valid,anti,2,0.6654416622941426,1,j,0,same,1.1715584518888136,0.306729283994184,0,0,0,0.3875185546794455,0,0,4.569642428728912
15,25,female,32,15,325,right,change,valid,anti,3,0.8174036792461266,1,j,0,same,1.8907878345453355,0.3063160477152277,0,0,0,0.3874893675438216,0,0,5.877322301665117
15,25,female,33,165,215,right,change,valid,clock,3,0.5770979776843888,1,j,0,same,1.7836360883857196,0.3059109517610138,0,0,0,0.3874524827024288,0,0,5.362628022471654
15,25,female,34,135,185,left,same,catch,anti,3,0.5693698016430062,1,j,1,same,1.15685166392268,0,0,0,0,0.3874871223797527,0,0,6.1584066005261775
15,25,female,35,165,215,left,change,valid,clock,3,0.5043742214093072,1,j,0,same,0.9975941461516413,0.305512491129468,0,0,0,0.3874611426217598,0,0,4.935321950137222
15,25,female,36,45,45,right,same,valid,clock,1,0.6974108766016798,0,f,0,change,0.8095023048217627,0.3051192246517508,0,0,0,0.38744253983259114,0,0,4.748128495239143
15,25,female,37,75,25,right,change,valid,anti,3,0.5934129447196028,1,j,0,same,0.952788686425265,0.3062882571753611,0,0,0,0.3875131021368361,0,0,4.684196481378422
15,25,female,38,15,15,right,same,valid,anti,2,0.41743953772675013,1,j,1,same,0.9283173584553879,0.30589140699076994,0,0,0,0.3874637085236827,0,0,4.627430390286463
15,25,female,39,105,55,right,change,valid,anti,3,0.6575123836846615,1,j,0,same,1.009766464430868,0.30550095091094276,0,0,0,0.38743612507732905,0,0,4.88833387003433
15,25,female,40,75,125,right,change,valid,clock,3,0.977414930726809,1,j,0,same,0.9682370200644073,0.3051155018236602,0,0,0,0.38749161270789045,0,0,5.340580188927561
15,25,female,41,105,105,right,same,valid,clock,3,0.6894472790527288,1,j,1,same,0.8330123817604544,0.3047337230382873,0,0,0,0.38746434999939083,0,0,4.452166775930891
15,25,female,42,75,75,right,same,valid,anti,3,0.5214082824750221,1,j,1,same,0.8059260789295877,0.3043280044706828,0,0,0,0.38744735089858295,0,0,4.428868706644607
15,25,female,43,105,65,right,same,catch,clock,4,0.6414360455346468,1,j,1,same,0.8524911059421356,0,0,0,0,0.38750412148056057,0,0,6.127205232387496
15,25,female,44,165,115,right,change,valid,anti,3,0.5043408646833996,1,j,0,same,0.6672785273776753,0.30392321568203307,0,0,0,0.3874595389324895,0,0,4.129134790679927
15,25,female,45,15,65,right,change,valid,clock,1,0.7214854519770597,0,f,1,change,0.621387049635814,0.3035178457359621,0,0,0,0.38747044401679887,0,0,4.385422212756566
15,25,female,46,75,25,left,change,valid,anti,2,0.6573949936691861,1,j,0,same,1.4919020133347658,0.3045774846010767,0,0,0,0.3874813491001987,0,0,5.088637480386751
15,25,female,47,15,15,left,same,valid,anti,3,0.5534926416348753,1,j,1,same,1.245361490686264,0.304179304203051,0,0,0,0.387477179509915,0,0,5.001860920414401
15,25,female,48,105,155,left,change,valid,clock,3,0.4733713899368013,1,j,0,same,0.7647109575555078,0.3037814382384355,0,0,0,0.3874232955668049,0,0,4.408650361215223
15,25,female,49,165,165,right,same,valid,anti,3,0.4254300772463466,1,j,1,same,0.9345483306879032,0.3033824306010218,0,0,0,0.3874864809040446,0,0,4.520084918525754
15,25,female,50,75,125,left,change,valid,clock,3,0.4494796350772958,1,j,0,same,1.148754639471008,0.30298083744262505,0,0,0,0.3874758965584988,0,0,4.770414316193637
15,25,female,51,15,15,right,same,valid,clock,3,0.44147273793259956,1,j,1,same,0.8113244159685564,0.3025752174332592,0,0,0,0.3875102154970591,0,0,4.291762620709051
15,25,female,52,105,105,right,same,valid,anti,3,0.44113211444437184,1,f,0,change,0.8420437152717568,0.302164122241191,0,0,0,0.3874736513944299,0,0,4.24862114842108
15,25,female,53,105,85,right,change,catch,anti,1,0.6814317219905206,0,f,1,change,1.2788291917540846,0,0,0,0,0.38751213992327393,0,0,6.50181248901481
15,25,female,54,165,165,right,same,valid,clock,3,0.6482930978527293,1,f,0,change,0.8773938261820149,0.301746087133402,0,0,0,0.38744735089858295,0,0,5.185462754008768
15,25,female,55,45,355,right,change,valid,anti,3,0.44144611669980804,1,f,1,change,1.3073777379777312,0.3013196216011916,0,0,0,0.38747910393612983,0,0,4.804613940801573
15,25,female,56,15,15,left,same,valid,clock,4,0.849465586763472,1,j,1,same,0.8083348194177233,0.30088319991847584,0,0,0,0.387406296465997,0,0,4.615037404435498
15,25,female,57,105,105,left,same,valid,clock,3,0.529471950199877,1,j,1,same,1.1767329139802314,0.30043525154187173,0,0,0,0.3875047629553592,0,0,4.508063988463618
15,25,female,58,15,65,left,change,valid,clock,3,0.4814799609466718,1,j,0,same,0.8385335613565985,0.2999739163481141,0,0,0,0.3874393324549601,0,0,4.614138055791045
15,25,female,1,165,165,left,same,valid,clock,3,0.7441378761777742,1,j,1,same,1.0216773814463522,0.2995124344510227,0,0,0,0.38751983762995224,0,0,5.009276697888708
15,25,female,2,45,45,right,same,valid,anti,1,0.6814727764231066,0,f,0,change,0.5705020058921946,0.29906969255512195,0,0,0,0.3875153473018145,0,0,4.498085516381252
15,25,female,3,105,105,right,same,valid,anti,2,0.6334586562625191,1,j,1,same,0.8930807887063565,0.3003346371737692,0,0,0,0.38752432795809,0,0,4.612459314415901
15,25,female,4,165,165,right,same,valid,anti,2,1.4014587794263207,1,f,0,change,0.6368376284390251,0.2998765585225201,0,0,0,0.38745152048977616,0,0,5.001371153874061
15,25,female,5,75,75,left,same,valid,clock,4,0.6893860181444325,1,j,1,same,1.1824593657347577,0.2994251540721725,0,0,0,0.3874694818041462,0,0,4.776231536732666
15,25,female,6,15,325,left,change,valid,anti,4,0.8174315834312438,1,j,0,same,1.1920532732565334,0.29899183035664645,0,0,0,0.38750219705252675,0,0,5.161164303684927
15,25,female,7,45,355,right,change,valid,anti,3,0.4974459653130907,1,j,0,same,0.9341268812859198,0.29857481374457484,0,0,0,0.3874842357399757,0,0,4.700489317508982
15,25,female,8,15,15,right,same,valid,anti,3,0.7775026204290043,1,f,0,change,0.9823719326232094,0.298172452170258,0,0,0,0.3874752550837002,0,0,4.747725007153349
15,25,female,9,105,155,right,change,valid,clock,3,4.2173623682247126,1,j,0,same,1.785184930971809,0.2977832019271902,0,0,0,0.3875413270579884,0,0,9.035948928287326
15,25,female,10,165,215,right,change,valid,clock,3,1.2574375876411068,1,f,1,change,0.8726151544724416,0.2974056157066517,0,0,0,0.38744382278309786,0,0,5.122264588115286
15,25,female,11,45,355,right,change,catch,anti,1,0.6974330075063335,0,f,1,change,0.6873130900767137,0,0,0,0,0.38745921819463547,0,0,5.830868570650637
15,25,female,12,165,115,left,change,valid,anti,3,0.78053134698348,1,j,0,same,0.986839488718033,0.2970383317317741,0,0,0,0.3874245785191306,0,0,4.792490695397646
15,25,female,13,135,185,left,same,catch,anti,1,0.633458014786811,0,f,0,change,1.2284310279137571,0,0,0,0,0.3874258614687278,0,0,6.486073887712337
15,25,female,14,105,55,right,change,valid,anti,2,0.7362900649550284,1,j,0,same,0.9906399102965224,0.2966800638546741,0,0,0,0.38745087901224906,0,0,5.222995485295542
15,25,female,15,105,85,right,change,catch,anti,1,0.7135147981989576,0,f,1,change,0.97414885823855,0,0,0,0,0.3874688403266191,0,0,6.454645757985418
15,25,female,16,75,25,left,change,valid,anti,1,0.7202262355785933,0,f,1,change,1.3738339579158492,0.2963295924991626,0,0,0,0.3875002726272214,0,0,5.0872085937189695
15,25,female,17,45,45,right,same,valid,clock,2,0.8413935798562306,1,j,1,same,1.2512258596743777,0.2973616765644539,0,0,0,0.3875054044310673,0,0,5.34427059745758
15,25,female,18,135,185,left,change,valid,clock,2,0.769380257692319,1,j,0,same,1.1101522477947583,0.297001257760687,0,0,0,0.38749032975647424,0,0,4.927743879361515
15,25,female,19,15,185,left,same,catch,clock,1,0.7374992462664522,0,f,0,change,1.0541562480357243,0,0,0,0,0.38751117771062127,0,0,6.6576454898513475
15,25,female,20,135,75,left,same,catch,clock,3,0.6004804009990039,1,j,1,same,0.9049281996485661,0,0,0,0,0.3874605011460517,0,0,6.392680507997284
15,25,female,21,45,105,right,change,catch,anti,3,0.4081079936822789,1,j,0,same,0.866990376583999,0,0,0,0,0.3874223333550617,0,0,5.877873970592191
15,25,female,22,75,75,left,same,valid,anti,3,0.39244701091593015,1,j,1,same,0.7332257365105761,0.29664956696489553,0,0,0,0.38747621729453385,0,0,4.094193941135018
15,25,female,23,45,95,left,change,valid,clock,3,0.39343969424771785,1,j,0,same,0.7342357396792067,0.2963054262630844,0,0,0,0.3875374782055587,0,0,4.253142909194139
15,25,female,24,135,185,right,change,valid,clock,3,0.48149696004838916,1,f,1,change,0.7579773892721278,0.29596771320179566,0,0,0,0.38738480703796085,0,0,4.200998007576345
15,25,female,25,105,105,left,same,valid,anti,3,0.44945012720381783,1,j,1,same,0.8007233919179271,0.2956353535146716,0,0,0,0.3874954615603201,0,0,4.331248324144326
15,25,female,26,45,95,right,change,valid,clock,3,0.38552998064005806,1,j,0,same,1.0522356704004778,0.2953073143772359,0,0,0,0.38745729376933014,0,0,4.55307343739878
15,25,female,27,45,355,left,change,valid,anti,2,1.0334025913034566,1,f,1,change,1.453658847935003,0.29498259811987143,0,0,0,0.38745152048977616,0,0,5.539714389449728
15,25,female,28,165,115,right,change,valid,anti,2,1.0734066069398978,1,j,0,same,1.2190625990278932,0.2946379571361948,0,0,0,0.3874194467152847,0,0,5.704601175439166
15,25,female,29,75,25,right,change,valid,anti,2,0.6174673136156343,1,j,0,same,1.176470550502927,0.2942946734319057,0,0,0,0.3874871223779337,0,0,5.234354412647008
15,25,female,30,135,135,right,same,valid,clock,2,0.4813879092125717,1,j,1,same,0.9618838467504247,0.29395161798692154,0,0,0,0.38753042197458853,0,0,4.566657322508036
15,25,female,31,105,155,left,change,valid,clock,2,0.5694714755099994,1,f,1,change,1.0736096339351207,0.29360767631017604,0,0,0,0.3874428605704452,0,0,4.802687269148009
15,25,female,32,75,155,left,change,catch,anti,1,0.7774981300990476,0,f,1,change,0.6641250338379905,0,0,0,0,0.38753234640171286,0,0,6.173927100158835
15,25,female,33,15,325,right,change,valid,anti,2,0.8237193262466462,1,f,1,change,1.2200071716961247,0.29326174175629727,0,0,0,0.38750764959513617,0,0,5.441227373554284
15,25,female,34,75,125,left,change,valid,clock,3,0.6814522492040851,1,j,0,same,1.1539656656659645,0.2929127090260677,0,0,0,0.38750700811942806,0,0,5.043768835324954
15,25,female,35,135,85,left,change,valid,anti,3,0.45745221328434127,1,j,0,same,0.7885250938797981,0.2925594677899873,0,0,0,0.3875368367316696,0,0,4.451620880283372
15,25,female,36,75,75,right,same,valid,clock,3,0.4574942299277609,1,j,1,same,0.589409816884654,0.29220089637706453,0,0,0,0.387497706724389,0,0,4.2206371006341215
15,25,female,37,75,75,right,same,valid,anti,3,0.40144498770314385,1,j,1,same,0.5780200987101125,0.29183585547301805,0,0,0,0.3874521619636653,0,0,4.007519055028752
15,25,female,38,75,135,left,change,catch,anti,1,0.6814051007568196,0,f,1,change,1.1899142732145265,0,0,0,0,0.38750412148147007,0,0,6.470332399772815
15,25,female,39,135,135,left,same,valid,clock,3,0.6320679373875464,1,j,1,same,1.2256306666349701,0.29146318177342834,0,0,0,0.3874252199930197,0,0,5.369656669485266
15,25,female,40,135,135,right,same,valid,anti,3,0.47342783978092484,1,j,1,same,0.8709736186774535,0.2910816815380849,0,0,0,0.3874370872908912,0,0,4.521748264487542
15,25,female,41,15,15,left,same,valid,clock,3,0.4413867802159075,1,j,1,same,0.7014091933688178,0.2906901239928483,0,0,0,0.3874223333550617,0,0,4.316315095329628
15,25,female,42,165,165,right,same,valid,clock,1,0.6894860883221554,0,f,0,change,0.7300183590286906,0.29028723452480887,0,0,0,0.38753234640171286,0,0,4.665962861135995
15,25,female,43,15,15,right,same,valid,clock,2,0.7211127547143406,1,j,1,same,1.4672074518930458,0.29136794384662956,0,0,0,0.3874730099178123,0,0,5.152390522584028
15,25,female,44,165,165,left,same,valid,anti,3,0.4973962509611738,1,j,1,same,0.9226540920353727,0.290988913901305,0,0,0,0.3874075794192322,0,0,4.482794023500901
15,25,female,45,105,105,left,same,valid,clock,3,0.5053919222846162,1,f,0,change,1.1317099940588378,0.2905996133601664,0,0,0,0.38756249574907997,0,0,4.892574664541826
15,25,female,46,15,65,left,change,valid,clock,1,0.721452095252971,0,f,1,change,0.9685959256039496,0.2901987854890491,0,0,0,0.38746499147418945,0,0,4.888652041881869
15,25,female,47,75,125,right,change,valid,clock,1,0.585438442087252,0,f,1,change,0.5496521278382716,0.2912745967436511,0,0,0,0.3874912919709459,0,0,4.276484278077987
15,25,female,48,45,45,left,same,valid,anti,3,0.6174708417311194,1,j,1,same,0.6304116476549098,0.2922543458657386,0,0,0,0.38747140622945153,0,0,4.080999752390198
15,25,female,49,15,15,left,same,valid,anti,3,0.5374246426654281,1,j,1,same,0.712280920080957,0.29190486061865895,0,0,0,0.3874601804091071,0,0,4.296164746301656
15,25,female,50,45,45,left,same,valid,clock,3,0.44143200423968665,1,j,1,same,0.5956061494416645,0.2915481255499894,0,0,0,0.38749032975647424,0,0,4.124913561177891
15,25,female,51,105,115,right,same,catch,clock,3,0.4174459524820122,1,j,1,same,0.8091456444453797,0,0,0,0,0.38748166983714327,0,0,5.892881289826619
15,25,female,52,15,65,right,change,valid,clock,3,0.40840403462425456,1,j,0,same,0.7783808003805461,0.2911830365379781,0,0,0,0.3874935371350148,0,0,4.131030350772562
15,25,female,53,105,105,right,same,valid,clock,1,0.5774591283898189,0,f,0,change,0.6397823217066616,0.2908084555578241,0,0,0,0.3875249694319791,0,0,4.41135482190839
15,25,female,54,105,65,right,same,catch,clock,1,0.5214272060020448,0,f,0,change,0.7018947903197841,0,0,0,0,0.38750508369230374,0,0,5.565638017944366
15,25,female,55,135,135,left,same,valid,anti,3,0.5361769728260697,1,f,0,change,1.4740468636337027,0.2918103743737882,0,0,0,0.3874412568820844,0,0,5.176404478525001
15,25,female,56,165,215,left,change,valid,clock,3,0.43344852095106035,1,j,0,same,0.8156457156492252,0.29145605648840933,0,0,0,0.387465312212953,0,0,4.155242843376982
15,25,female,57,135,85,right,change,valid,anti,1,0.6974493651323428,0,f,1,change,0.6858146033173398,0.2910931655578954,0,0,0,0.38744959606265184,0,0,4.404658779940291
15,25,female,58,105,55,left,change,valid,anti,1,0.7854652557634836,0,f,1,change,0.929427752538686,0.29206214614293935,0,0,0,0.38755062845302746,0,0,4.748065630641577
15,25,female,1,15,65,left,change,valid,clock,2,1.3283511000663566,1,j,0,same,1.086760523085104,0.29295769203347655,0,0,0,0.3874540863907896,0,0,5.273175547466963
15,25,female,2,15,15,left,same,valid,clock,1,1.2013832136126439,0,f,0,change,0.9328365533256147,0.29263339944692135,0,0,0,0.38752689385910344,0,0,5.51247445323861
15,25,female,3,135,135,left,same,valid,clock,1,1.0653323548704066,0,f,0,change,1.7229136971709522,0.29348959864654767,0,0,0,0.3874127112212591,0,0,5.659293119661015
15,25,female,4,165,115,right,change,valid,anti,1,0.6654602650833112,0,f,1,change,0.8431550715686171,0.29430585855565294,0,0,0,0.3875608920625382,0,0,4.900063570221391
15,25,female,5,135,185,right,change,valid,clock,2,1.0974552025581943,1,j,0,same,1.4149195012414566,0.29509974469443845,0,0,0,0.3874800661487825,0,0,5.519762897827604
15,25,female,6,135,135,left,same,valid,anti,1,0.5293850302714418,0,f,0,change,1.3742836322398944,0.2948163385401306,0,0,0,0.3874717269682151,0,0,5.4206873281655135
15,25,female,7,105,115,right,same,catch,clock,2,0.6174663514029817,1,j,1,same,0.775101898383582,0,0,0,0,0.387521441318313,0,0,5.971175940048852
15,25,female,8,45,45,left,same,valid,anti,2,0.5364643538468954,1,j,1,same,1.0573042890337092,0.2956004518196826,0,0,0,0.3873815996612393,0,0,4.765799541473825
15,25,female,9,45,45,right,same,valid,clock,3,0.5133686700810358,1,f,0,change,1.6184054715304228,0.2953167655137333,0,0,0,0.38746819885273,0,0,5.182825006766507
15,25,female,10,135,85,left,change,valid,anti,3,0.5454280116955488,1,j,0,same,1.2222651654428773,0.2950358098768042,0,0,0,0.3875673068159813,0,0,4.682317920389323
15,25,female,11,45,355,right,change,valid,anti,3,0.5853871240469743,1,j,0,same,1.751802866883736,0.2947568374077372,0,0,0,0.38753459156578174,0,0,5.481243256488597
15,25,female,12,15,185,left,same,catch,clock,1,0.5534810950757674,0,f,0,change,0.7305462933636591,0,0,0,0,0.3874540863907896,0,0,5.471918447938151
15,25,female,13,75,75,left,same,valid,anti,3,0.5840737029684533,1,j,1,same,0.8500534990562301,0.2944598480597591,0,0,0,0.3875284975492832,0,0,4.503175303707394
15,25,female,14,105,65,right,same,catch,clock,3,0.8894715268270375,1,j,1,same,0.90058990086618,0,0,0,0,0.38743195548704534,0,0,6.501713701787594
15,25,female,15,105,155,right,change,valid,clock,3,0.6794707313965773,1,j,0,same,1.6839536829029385,0.2941632752785281,0,0,0,0.3874989896758052,0,0,5.398310096952628
15,25,female,16,15,15,right,same,valid,clock,2,0.5453173571731895,1,j,1,same,1.170194674983577,0.2938662554312324,0,0,0,0.387462425571357,0,0,4.591506800281422
15,25,female,17,45,105,right,change,catch,anti,1,0.5854746854529367,0,f,1,change,0.46176068345266685,0,0,0,0,0.3875868718187121,0,0,5.62812350456079
15,25,female,18,135,135,right,same,valid,clock,2,0.6793972824543744,1,f,0,change,1.3952499380993686,0.2935679315384667,0,0,0,0.3874168808124523,0,0,5.419317457242869
15,25,female,19,105,155,left,change,valid,clock,1,0.6895037288959429,0,f,1,change,1.050811274060834,0.2932674488476782,0,0,0,0.38741367343573074,0,0,5.004289546643122
15,25,female,20,45,45,right,same,valid,anti,2,0.7053600409508363,1,j,1,same,1.7784985111356946,0.2940567544485293,0,0,0,0.38740373056498356,0,0,5.826725601158614
15,25,female,21,165,115,left,change,valid,anti,1,0.5694721169838886,0,f,1,change,0.8186811776977265,0.2937633440203478,0,0,0,0.38747974541001895,0,0,4.319135663086854
15,25,female,22,105,105,right,same,valid,anti,2,0.9455092224925465,1,j,1,same,0.8626126270592067,0.2945305908572969,0,0,0,0.38746819885273,0,0,4.764473932360488
15,25,female,23,15,65,right,change,valid,clock,1,0.5374134168450837,0,f,1,change,0.8663986154388112,0.29424192281392525,0,0,0,0.387459538933399,0,0,4.4054410593071225
15,25,female,24,15,325,left,change,valid,anti,2,0.7454814466054813,1,f,1,change,1.30587796826876,0.2949933351813969,0,0,0,0.38738769367773784,0,0,5.101277113566539
15,25,female,25,45,45,left,same,valid,clock,2,0.5915892298835388,1,j,1,same,0.9987292370424257,0.29470721143131645,0,0,0,0.3874232955677144,0,0,4.830715899484858
15,25,female,26,75,135,left,change,catch,anti,3,0.5054095628602226,1,f,1,change,1.7259837988949585,0,0,0,0,0.3874707647555624,0,0,6.907447273923026
15,25,female,27,15,15,left,same,valid,anti,3,3.271880408439756,1,f,0,change,1.8039891436674225,0.2944221301765021,0,0,0,0.3874630670470651,0,0,8.304174209348275
15,25,female,28,135,85,right,change,valid,anti,2,0.7452399310805049,1,j,0,same,1.5194302927829995,0.2941372789199789,0,0,0,0.38742425778036704,0,0,5.4842280419725284
15,25,female,29,135,185,left,change,valid,clock,2,0.6254693996943388,1,f,1,change,0.9082978704300331,0.29385185444017625,0,0,0,0.3874829527885595,0,0,4.77557594877544
15,25,female,30,105,105,right,same,valid,clock,3,0.8014514666047035,1,j,1,same,0.9017891393068567,0.29356505873321614,0,0,0,0.38747557582064474,0,0,4.800871572757387
15,25,female,31,105,85,right,change,catch,anti,1,0.7054540171102417,0,f,1,change,0.6776765244358103,0,0,0,0,0.3874393324549601,0,0,5.830782933673618
15,25,female,32,75,75,right,same,valid,anti,2,0.7283989541392657,1,j,1,same,0.8955530352704955,0.29327609505413144,0,0,0,0.3874858394283365,0,0,4.806048280011964
15,25,female,33,45,95,left,change,valid,clock,3,0.5933054975739651,1,j,0,same,0.5942965772137541,0.2929841640257741,0,0,0,0.3874646707354259,0,0,4.056216025854155
15,25,female,34,75,25,right,change,valid,anti,2,0.5770043222619279,1,j,0,same,1.980991798092873,0.2926884597854469,0,0,0,0.38751983762995224,0,0,5.511048132471842
15,25,female,35,105,55,left,change,valid,anti,3,0.6413302020773699,1,j,0,same,1.8820304110704456,0.292388166140244,0,0,0,0.38747333065657585,0,0,5.370947318184335
15,25,female,36,45,95,right,change,valid,clock,2,0.5934472636581631,1,j,0,same,1.1228666128681652,0.29208245270272737,0,0,0,0.38745921819463547,0,0,4.635252221751216
15,25,female,37,105,105,left,same,valid,clock,2,0.5294575170028111,1,j,1,same,1.1773076760237018,0.2917704709789226,0,0,0,0.38742971032297646,0,0,4.841043334236019
15,25,female,38,45,355,left,change,valid,anti,1,0.6894678062690218,0,f,1,change,0.7047746945609106,0.29145135038069314,0,0,0,0.38749225418359856,0,0,4.347777223256344
15,25,female,39,15,15,right,same,valid,anti,2,0.6654278705700563,1,j,1,same,1.32046351736426,0.29230218285494314,0,0,0,0.38755223214138823,0,0,4.929742717009503
15,25,female,40,165,215,left,change,valid,clock,1,0.665500036564481,0,f,1,change,1.0186534659551398,0.2919983361673529,0,0,0,0.38763273731819936,0,0,4.831048825264588
15,25,female,41,165,165,right,same,valid,anti,2,0.617388412129003,1,j,1,same,0.8088643574392336,0.2928053507998942,0,0,0,0.38745665229362203,0,0,4.617422089593674
15,25,female,42,105,105,left,same,valid,anti,2,0.6574398969532922,1,f,0,change,1.2498130098920228,0.29251408172826143,0,0,0,0.3874441435200424,0,0,4.790521044886191
15,25,female,43,75,25,left,change,valid,anti,1,0.7614320555567247,0,f,1,change,1.0640109153464437,0.2922177974822546,0,0,0,0.38749931041456875,0,0,5.008263166606412
15,25,female,44,135,185,left,same,catch,anti,2,0.5454482181721687,1,j,1,same,0.9613231971652567,0,0,0,0,0.3874117490086064,0,0,6.220859371893312
15,25,female,45,75,75,left,same,valid,clock,2,0.44834133681069943,1,j,1,same,0.8400865735329717,0.2930034799581829,0,0,0,0.3874858394283365,0,0,4.341465745850655
15,25,female,46,165,165,left,same,valid,clock,1,0.7374575503581582,0,f,0,change,0.834889339063011,0.292718660516378,0,0,0,0.38750219705252675,0,0,4.81928897573016
15,25,female,47,45,355,right,change,catch,anti,3,0.7374251558467222,1,f,1,change,0.9874193825671682,0,0,0,0,0.38751406435039826,0,0,6.408001829488057
15,25,female,48,75,125,right,change,valid,clock,1,0.6784248056010256,0,j,0,same,0.9895019327668706,0.29347092970149424,0,0,0,0.3874717269663961,0,0,4.944519746539299
15,25,female,49,75,155,left,change,catch,anti,2,1.217382253966207,1,f,1,change,0.9841950059835654,0,0,0,0,0.387438690979252,0,0,6.922798103285459
15,25,female,50,165,165,right,same,valid,clock,2,0.6482427420269232,1,j,1,same,1.200413623399072,0.2941879228274774,0,0,0,0.38755415657033154,0,0,5.134126432254561
15,25,female,51,75,75,right,same,valid,clock,3,0.6574488776113867,1,j,1,same,0.886700994158673,0.29392041892762855,0,0,0,0.3874393324549601,0,0,4.8246857090816775
15,25,female,52,135,135,right,same,valid,anti,2,0.7690418793699791,1,f,0,change,2.2721665065109846,0.2936516933311864,0,0,0,0.38745023753835994,0,0,5.939073940313392
15,25,female,53,15,325,right,change,valid,anti,1,0.697264940927198,0,f,1,change,0.8812879031829652,0.29338103356348133,0,0,0,0.3874441435218614,0,0,4.50572292364086
15,25,female,54,105,55,right,change,valid,anti,1,1.7774224359909567,0,f,1,change,1.2410421154327196,0.29409182486647933,0,0,0,0.3874829527885595,0,0,6.075751520616905
15,25,female,55,75,125,left,change,valid,clock,2,0.8974691225757851,1,j,0,same,0.7479225816041435,0.29477983049777845,0,0,0,0.3874970652486809,0,0,4.926145643161362
15,25,female,56,135,75,left,same,catch,clock,3,0.5854519130716653,1,j,1,same,0.7855387047075055,0,0,0,0,0.3874406154045573,0,0,5.784090253036993
15,25,female,57,165,165,left,same,valid,anti,3,0.6883959007136582,1,f,0,change,1.084670595917487,0.29451911592929986,0,0,0,0.38747333065475686,0,0,4.886235282949201
15,25,female,58,165,215,right,change,valid,clock,3,0.5054801251644676,1,j,0,same,0.8988498985818296,0.2942587422074522,0,0,0,0.38744446425880597,0,0,4.610004387692243
15,25,female,1,105,105,left,same,valid,clock,3,1.5521092997278174,1,j,1,same,3.229450973951316,0.29399802032123956,0,0,0,0.38750508369230374,0,0,7.928739449333079
15,25,female,2,105,105,left,same,valid,anti,3,0.34543263031810056,1,j,1,same,0.5506890729775478,0.293736266083386,0,0,0,0.38748263205161493,0,0,4.24886362615689
15,25,female,3,75,75,right,same,valid,anti,3,0.2814589205518132,1,j,1,same,0.667674959235228,0.2934727969925657,0,0,0,0.3875012348416931,0,0,4.012838169843235
15,25,female,4,75,125,right,change,valid,clock,3,0.5533893640804308,1,f,1,change,1.9682719804786757,0.293206929150313,0,0,0,0.3874928956574877,0,0,5.65820485648328
15,25,female,5,15,15,left,same,valid,clock,3,0.5773949808390171,1,f,0,change,1.6377231853621197,0.29293797421055745,0,0,0,0.3874771795090055,0,0,4.969606249511344
15,25,female,6,105,105,right,same,valid,anti,3,0.4974158159639046,1,j,1,same,1.2537580841944873,0.2926652363404197,0,0,0,0.3874787831973663,0,0,4.536142974624454
15,25,female,7,105,155,right,change,valid,clock,3,0.5134620047647331,1,f,1,change,0.8126124987647927,0.2923880091713912,0,0,0,0.3873937876942364,0,0,4.2267157224359835
15,25,female,8,75,155,left,change,catch,anti,1,0.7054620355556835,0,f,1,change,0.7485390395577269,0,0,0,0,0.3874665951643692,0,0,6.22086706959999
15,25,female,9,75,25,right,change,valid,anti,3,0.8000123163292301,1,j,0,same,1.1663503123345436,0.2921055727203067,0,0,0,0.3874871223797527,0,0,5.276212613203825
15,25,female,10,45,45,right,same,valid,anti,1,0.5613978649143974,0,f,0,change,1.9406506870855083,0.29181719025961417,0,0,0,0.38748968828076613,0,0,5.849638464409509
15,25,female,11,105,55,right,change,valid,anti,2,0.5054541454064747,1,j,0,same,0.8900831737119006,0.2925846156881672,0,0,0,0.3874611426217598,0,0,4.070853855202586
15,25,female,12,15,325,right,change,valid,anti,3,0.5372969890431705,1,f,1,change,1.5023898169620225,0.29230899046383296,0,0,0,0.3875002726272214,0,0,5.125976486073341
15,25,female,13,165,165,left,same,valid,anti,3,0.5454597647312767,1,j,1,same,0.8197437818562321,0.2920279802505088,0,0,0,0.3875124606602185,0,0,4.439854615993681
15,25,female,14,135,185,left,change,valid,clock,3,0.36946101945977716,1,j,0,same,0.5362311775043054,0.291740856998973,0,0,0,0.38752817681051965,0,0,3.984302453131022
15,25,female,15,135,185,left,same,catch,anti,3,0.4174376132996258,1,j,1,same,0.8193409352443268,0,0,0,0,0.38751406435039826,0,0,5.846281302399802
15,25,female,16,105,115,right,same,catch,clock,3,0.4640709574541688,1,j,1,same,1.33971131036742,0,0,0,0,0.3875038007427065,0,0,6.408160273935209
15,25,female,17,75,75,left,same,valid,anti,2,0.7842897519149119,1,j,1,same,1.0458369523239526,0.2914468720957558,0,0,0,0.38741848450081307,0,0,5.324180226389217
15,25,female,18,45,355,left,change,valid,anti,1,1.1132714223949733,0,f,1,change,2.8690491921897774,0.29114525313610307,0,0,0,0.3874232955658954,0,0,7.187526059942684
15,25,female,19,75,75,right,same,valid,clock,3,0.5054400329463533,1,j,1,same,0.8738259394722263,0.291951604188331,0,0,0,0.3875108569736767,0,0,4.530318377119329
15,25,female,20,135,135,right,same,valid,clock,3,0.5534852646669606,1,f,0,change,1.0245762092126824,0.29166564379880133,0,0,0,0.38751278139898204,0,0,4.645183866121442
15,25,female,21,105,65,right,same,catch,clock,1,0.7694453674575925,0,f,0,change,0.5091580249227263,0,0,0,0,0.38750636664371996,0,0,6.0960221462992195
15,25,female,22,135,85,left,change,valid,anti,3,0.6884250878501916,1,j,0,same,0.5969426636365824,0.29137266773929626,0,0,0,0.3874447849975695,0,0,4.661698332036394
15,25,female,23,135,135,left,same,valid,clock,1,0.6494301131697284,0,f,0,change,0.43854793040736695,0.2910719106432409,0,0,0,0.3874111075328983,0,0,3.980031188537396
15,25,female,24,105,105,right,same,valid,clock,3,0.49744500309861905,1,j,1,same,0.7368815053632716,0.29187638539454697,0,0,0,0.38752945976193587,0,0,4.264626282791141
15,25,female,25,135,85,right,change,valid,anti,3,0.4094695254225371,1,j,0,same,0.6258908490945032,0.29159149554706626,0,0,0,0.3875432514851127,0,0,3.9485613629058207
15,25,female,26,45,45,left,same,valid,clock,2,0.9454033790352696,1,j,1,same,3.0567882219966123,0.2912994406514582,0,0,0,0.387435804339475,0,0,7.112516405735732
15,25,female,27,105,55,left,change,valid,anti,1,0.6174522389410413,0,f,1,change,0.6557986818970676,0.29099946193898807,0,0,0,0.3875131021377456,0,0,4.549845853436636
15,25,female,28,165,165,left,same,valid,clock,3,0.5134680987812317,1,f,0,change,1.0977538094011834,0.29180226764418254,0,0,0,0.38749161270789045,0,0,4.585186662954584
15,25,female,29,135,135,right,same,valid,anti,1,0.6013932206296886,0,f,0,change,1.2107452277414268,0.2915183598021297,0,0,0,0.38742842737156025,0,0,4.797507354516711
15,25,female,30,135,185,right,change,valid,clock,1,0.7453618114232086,0,f,1,change,1.5144158788261848,0.29227572777002764,0,0,0,0.3874335591754061,0,0,5.519038351254494
15,25,female,31,45,355,right,change,catch,anti,1,0.6654474355746061,0,f,1,change,0.842443354506031,0,0,0,0,0.38744382278309786,0,0,6.018114305801646
15,25,female,32,75,75,left,same,valid,clock,3,1.3841552986523311,1,j,1,same,1.3589065023807052,0.29297856315499154,0,0,0,0.38742842737156025,0,0,6.068094227617621
15,25,female,33,75,135,left,change,catch,anti,3,0.5214563931367593,1,f,1,change,1.618619082870282,0,0,0,0,0.38750155557863764,0,0,6.844526225442678
15,25,female,34,45,95,right,change,valid,clock,3,0.408430335119192,1,j,0,same,0.7140074513790751,0.2927239997500146,0,0,0,0.38752112058136845,0,0,4.524363560085476
15,25,female,35,15,15,right,same,valid,anti,3,0.465446922391493,1,f,0,change,0.9141115628535772,0.2924652212708627,0,0,0,0.3874807076244906,0,0,4.526984628962964
15,25,female,36,45,105,right,change,catch,anti,3,0.4334501246394211,1,j,0,same,0.6996788132200891,0,0,0,0,0.38749225418359856,0,0,5.752928656378572
15,25,female,37,75,25,left,change,valid,anti,2,0.7120400460316887,1,f,1,change,1.0977826758007723,0.292201588265561,0,0,0,0.3875265731221589,0,0,4.796139728758135
15,25,female,38,45,45,right,same,valid,clock,2,0.5934203216875176,1,f,0,change,1.1243397613452544,0.29193244641179716,0,0,0,0.3874646707372449,0,0,5.005546517879338
15,25,female,39,165,115,left,change,valid,anti,1,0.9534157287216658,0,f,1,change,2.1382004431306996,0.2916571238472861,0,0,0,0.3875666653402732,0,0,6.380757082210039
15,25,female,40,165,165,right,same,valid,anti,1,0.6814111947733181,0,f,0,change,0.7837400074167817,0.2923910270955852,0,0,0,0.38743612507641956,0,0,4.4150548525685736
15,25,female,41,15,325,left,change,valid,anti,2,1.6733911473820626,1,j,0,same,0.9915613898465381,0.2930736072208474,0,0,0,0.38745087901224906,0,0,5.502977729254781
15,25,female,42,135,135,left,same,valid,anti,1,4.1774388577614445,0,f,0,change,1.2964482784736902,0.2928258663279827,0,0,0,0.3874871223797527,0,0,8.170775851784128
15,25,female,43,15,15,right,same,valid,clock,3,0.9134976708010072,1,j,1,same,0.8521607460625091,0.29348038288598666,0,0,0,0.3874954615603201,0,0,4.658473955452791
15,25,female,44,15,65,right,change,valid,clock,3,0.5932689334695169,1,j,0,same,0.9415189241681219,0.2932405219593762,0,0,0,0.3874223333532427,0,0,4.280529422556356
15,25,female,45,15,185,left,same,catch,clock,2,0.6013335634106625,1,f,0,change,0.7580383294425701,0,0,0,0,0.38747461360799207,0,0,5.9245679341802315
15,25,female,46,165,215,right,change,valid,clock,1,0.6082756112300558,0,j,0,same,1.5341293830406357,0.29299774565042547,0,0,0,0.3874912919709459,0,0,5.220134183844493
15,25,female,47,165,215,left,change,valid,clock,2,1.3693728165781067,1,j,0,same,1.762095341220629,0.29363823125030203,0,0,0,0.38733445121033583,0,0,6.271615799798383
15,25,female,48,165,115,right,change,valid,anti,4,0.6254896061727777,1,j,0,same,1.1371128214268538,0.293402596970695,0,0,0,0.38752112058136845,0,0,5.223401539284168
15,25,female,49,15,15,left,same,valid,anti,3,0.5854583278269274,1,j,1,same,0.8918889272354136,0.29316444299597705,0,0,0,0.3874377287665993,0,0,4.596082444995773
15,25,female,50,165,165,right,same,valid,clock,4,0.5533733271931851,1,f,0,change,1.4960722455361974,0.29292320147199624,0,0,0,0.3874245785191306,0,0,4.9845410820144025
15,25,female,51,135,75,left,same,catch,clock,3,2.553214241268506,1,j,1,same,0.9084325802832609,0,0,0,0,0.38748199057408783,0,0,7.983453139573612
15,25,female,52,105,85,right,change,catch,anti,3,0.38435447679330537,1,j,0,same,0.7566389506500855,0,0,0,0,0.38739603285830526,0,0,5.9246946255898365
15,25,female,53,45,355,right,change,valid,anti,2,0.6318761362126679,1,f,1,change,0.847831107199454,0.2926782968610645,0,0,0,0.38742489925607515,0,0,4.6407227247837
15,25,female,54,45,45,left,same,valid,anti,4,0.5534451724488463,1,j,1,same,0.7431034969395114,0.29242914368141704,0,0,0,0.38749225418359856,0,0,4.398209064562252
15,25,female,55,15,65,left,change,valid,clock,4,0.7134474432696152,1,j,0,same,0.7513714746110054,0.29217514421338486,0,0,0,0.38739603285830526,0,0,4.629698968379671
15,25,female,56,75,125,left,change,valid,clock,4,0.7133829749836877,1,j,0,same,0.8138014735977777,0.291915686158552,0,0,0,0.3874560108179139,0,0,4.530785692017162
15,25,female,57,45,95,left,change,valid,clock,3,0.5453856743115466,1,j,0,same,1.4999695299138693,0.2916501402380107,0,0,0,0.38745087901406805,0,0,5.037454150538906
15,25,female,58,105,155,left,change,valid,clock,3,0.6974654020195885,1,f,1,change,0.723912795256183,0.2913778577155606,0,0,0,0.38753106345029664,0,0,4.429730849711632
15,25,female,1,45,355,right,change,catch,anti,1,1.5524030955039052,0,f,1,change,1.4657073614434921,0,0,0,0,0.3874941786089039,0,0,7.427815083141468
15,25,female,2,45,355,left,change,valid,anti,3,1.0161642202929215,1,f,1,change,1.205689117881775,0.2910981678313181,0,0,0,0.3874393324549601,0,0,4.991747738478807
15,25,female,3,105,85,right,change,catch,anti,3,0.5294456497049396,1,j,0,same,0.7246485676496377,0,0,0,0,0.38744895458694373,0,0,6.298709800334109
15,25,female,4,15,15,left,same,valid,clock,4,0.7684520426500967,1,j,1,same,1.1312025869428908,0.29081037513071384,0,0,0,0.3874758965575893,0,0,5.215504013713144
15,25,female,5,75,125,left,change,valid,clock,2,1.2894651762198919,1,f,1,change,2.0729643095855863,0.2905137566732515,0,0,0,0.3875012348416931,0,0,6.4750661681973725
15,25,female,6,105,65,right,same,catch,clock,3,0.5774514306831406,1,j,1,same,0.8978331599209923,0,0,0,0,0.38744735089858295,0,0,6.3611770048992184
15,25,female,7,165,215,left,change,valid,clock,3,0.7604056947639037,1,f,1,change,1.2027264633015875,0.2902075591046793,0,0,0,0.3874168808124523,0,0,5.097833673102286
15,25,female,8,15,65,right,change,valid,clock,2,0.9933504650052782,1,j,0,same,1.5064926942359307,0.28989044532157027,0,0,0,0.38748263204979594,0,0,5.5791651324707345
15,25,female,9,105,155,right,change,valid,clock,2,0.6483617357298499,1,f,1,change,0.9994893855055125,0.2895773233159527,0,0,0,0.38754357222205726,0,0,4.6567098978393915
15,25,female,10,135,135,left,same,valid,anti,1,0.649398039393418,0,f,0,change,1.230171350935052,0.28927635387621536,0,0,0,0.38745729376933014,0,0,5.070912550212597
15,25,female,11,165,115,left,change,valid,anti,3,0.5934488673465239,1,j,0,same,0.8125319935898005,0.2901408753194978,0,0,0,0.3874605011478707,0,0,4.391611489083516
15,25,female,12,45,355,right,change,valid,anti,3,0.553440361381945,1,f,1,change,1.2322109222750441,0.2898247905780897,0,0,0,0.38740661720476055,0,0,5.0149450961107505
15,25,female,13,45,95,right,change,valid,clock,2,0.969392317432721,1,f,1,change,1.37780757787732,0.2895164643225979,0,0,0,0.3874723684439232,0,0,5.285881894098566
15,25,female,14,135,85,left,change,valid,anti,3,0.4814263977441442,1,j,0,same,0.7982261278102669,0.2892200163974421,0,0,0,0.3875230450066738,0,0,4.524087404884995
15,25,female,15,75,75,left,same,valid,anti,3,0.43343921955602127,1,j,1,same,0.607872443879387,0.2889346013197602,0,0,0,0.3874534449150815,0,0,4.206965974855848
15,25,female,16,45,45,left,same,valid,clock,1,0.8654482694910257,0,f,0,change,1.1036101599456742,0.28865942327137084,0,0,0,0.38753234640171286,0,0,5.017358006190989
15,25,female,17,75,125,right,change,valid,clock,3,0.7770513424147794,1,j,0,same,1.3613768245177198,0.28945694188450977,0,0,0,0.3874736513935204,0,0,5.296866520495314
15,25,female,18,15,325,left,change,valid,anti,1,0.8414009568241454,0,f,1,change,1.1524636507911055,0.2891649010405568,0,0,0,0.38749802746315254,0,0,5.023173623039838
15,25,female,19,135,75,left,same,catch,clock,3,0.5215067489643843,1,j,1,same,1.0669350813968776,0,0,0,0,0.38754774181325047,0,0,6.345775498972216
15,25,female,20,45,45,left,same,valid,anti,3,0.6403311039921391,1,f,0,change,1.3409073414313752,0.2900089495512646,0,0,0,0.3875227242697292,0,0,5.408187857381563
15,25,female,21,165,165,right,same,valid,anti,1,1.6573289216921694,0,f,0,change,1.454606627981775,0.28969781306258857,0,0,0,0.3874617840974679,0,0,6.281077884104889
15,25,female,22,75,25,left,change,valid,anti,4,1.0654827808721166,1,j,0,same,0.7347142803992028,0.2905459184100331,0,0,0,0.3875047629553592,0,0,5.168782466678749
15,25,female,23,165,165,left,same,valid,anti,4,0.6893879425697378,1,j,1,same,1.1994049031818577,0.29024979558509906,0,0,0,0.38749449934766744,0,0,5.0518235223935335
15,25,female,24,105,105,right,same,valid,clock,2,0.5535513366430678,1,j,1,same,1.0264056973283004,0.2899429980562095,0,0,0,0.38744253983168164,0,0,4.7968338052451145
15,25,female,25,165,165,left,same,valid,clock,2,1.55345479458083,1,f,0,change,1.0815863817315403,0.2896363945997165,0,0,0,0.38751759246588335,0,0,5.8618765339288075
15,25,female,26,45,45,right,same,valid,anti,1,0.8814315936942876,0,f,0,change,1.444323455038102,0.28934173144415437,0,0,0,0.38739186326893105,0,0,5.738616375843776
15,25,female,27,75,75,left,same,valid,clock,4,0.561439881557817,1,j,1,same,0.7798834567311133,0.29018502725915657,0,0,0,0.3875265731221589,0,0,4.636629148903012
15,25,female,28,105,55,right,change,valid,anti,3,0.9214728149108851,1,j,0,same,1.0853095055117592,0.28987831103189926,0,0,0,0.38755191140626266,0,0,4.906264713843484
15,25,female,29,165,215,right,change,valid,clock,4,0.5534563982673717,1,f,1,change,0.8760207478826487,0.2895762959757342,0,0,0,0.38751983762995224,0,0,4.766193086690691
15,25,female,30,105,105,left,same,valid,anti,4,0.5134517411570414,1,j,1,same,0.7663136840837979,0.28928596049767047,0,0,0,0.38746082188481523,0,0,4.271546841182499
15,25,female,31,75,155,left,change,catch,anti,1,0.7133890690001863,0,f,1,change,1.093392738241164,0,0,0,0,0.3875002726272214,0,0,6.54866778368887
15,25,female,32,15,185,left,same,catch,clock,3,0.624405512582598,1,f,0,change,1.1975690003109776,0,0,0,0,0.3875038007427065,0,0,6.751680986537394
15,25,female,33,135,185,left,change,valid,clock,1,0.7360956978809554,0,f,1,change,1.5516192124468944,0.28900649546568846,0,0,0,0.3874730099196313,0,0,5.782079868831715
15,25,female,34,75,75,right,same,valid,clock,4,0.6254854365815845,1,j,1,same,0.6896698710497731,0.2898150160847267,0,0,0,0.387491933444835,0,0,4.232656427007896
15,25,female,35,45,95,left,change,valid,clock,3,0.5454629721098172,1,j,0,same,0.7415848037016985,0.2895174743356116,0,0,0,0.3874746136061731,0,0,4.219813766834704
15,25,female,36,135,135,right,same,valid,clock,2,0.969389430792944,1,f,0,change,1.593767680667952,0.28923136002195515,0,0,0,0.38744735089858295,0,0,5.734692149495459
15,25,female,37,135,185,left,same,catch,anti,1,0.7534485722680984,0,f,0,change,1.003045725656193,0,0,0,0,0.3874617840974679,0,0,6.595245960948887
15,25,female,38,45,105,right,change,catch,anti,4,0.5203658847931365,1,j,0,same,0.5465643855368398,0,0,0,0,0.38753042197458853,0,0,6.173795918421092
15,25,female,39,105,115,right,same,catch,clock,2,0.7844591014472826,1,j,1,same,1.3580231906216795,0,0,0,0,0.3875025177912903,0,0,6.798007063927798
15,25,female,40,45,45,right,same,valid,clock,2,0.9598032209778466,1,f,0,change,2.1178156348105404,0.2889558845557565,0,0,0,0.38746082188481523,0,0,6.713609415834071
15,25,female,41,15,65,left,change,valid,clock,4,0.7774869042787032,1,j,0,same,1.1600356275484955,0.2886903049435427,0,0,0,0.38743837024230743,0,0,4.756257593466216
15,25,female,42,75,135,left,change,catch,anti,1,0.7294015803381626,0,f,1,change,1.2521322645498003,0,0,0,0,0.3874576145062747,0,0,6.564028235185106
15,25,female,43,15,325,right,change,valid,anti,1,0.6076591532782913,0,f,1,change,0.8915319461211766,0.28843392011450386,0,0,0,0.38750636664371996,0,0,4.9715993138779595
15,25,female,44,75,25,right,change,valid,anti,1,0.5054185435183172,0,f,1,change,1.1018608562662848,0.2891778927852325,0,0,0,0.3875143850891618,0,0,4.817658665757335
15,25,female,45,105,55,left,change,valid,anti,2,1.1533742252577213,1,j,0,same,1.429362963515814,0.2899930908409636,0,0,0,0.3875426100094046,0,0,5.691564789667609
15,25,female,46,15,15,right,same,valid,anti,2,0.7374973218393279,1,f,0,change,0.9440707136927813,0.28969242342333834,0,0,0,0.3874451057345141,0,0,5.172304167152106
15,25,female,47,165,115,right,change,valid,anti,3,0.6814387782196718,1,j,0,same,1.1358648308505508,0.28940349953844174,0,0,0,0.3875390818957385,0,0,4.840118968046227
15,25,female,48,135,135,right,same,valid,anti,3,0.7133618062925962,1,j,1,same,2.1017194109208504,0.2891255230961101,0,0,0,0.38749289565930667,0,0,6.082879917070386
15,25,female,49,135,185,right,change,valid,clock,3,1.1694775053783815,1,f,1,change,1.1519344335065398,0.2888577443760526,0,0,0,0.38745857671892736,0,0,5.005248873249002
15,25,female,50,105,105,right,same,valid,anti,4,0.537400266597615,1,j,1,same,0.712537831017471,0.288599456336295,0,0,0,0.38744799237429106,0,0,4.7490855766809545
15,25,female,51,165,165,right,same,valid,clock,2,0.8573942238981545,1,f,0,change,1.1131610886095586,0.28834999120562155,0,0,0,0.3875025177931093,0,0,5.133374943710805
15,25,female,52,105,155,left,change,valid,clock,1,0.6414475920919358,0,f,1,change,1.2070176136330701,0.28810871733446297,0,0,0,0.38741656007368874,0,0,5.07976523279649
15,25,female,53,15,15,right,same,valid,clock,3,0.8094291766155948,1,j,1,same,0.9371754935837089,0.2888101516901936,0,0,0,0.38751213992327393,0,0,4.936538508416561
15,25,female,54,15,15,left,same,valid,anti,4,0.5774328278948815,1,j,1,same,0.7754668979396229,0.28855538422524496,0,0,0,0.38749995188845787,0,0,4.349781513446942
15,25,female,55,135,85,right,change,valid,anti,1,0.6734094294333772,0,f,1,change,1.6114473868219648,0.28830926234090487,0,0,0,0.38752817681233864,0,0,5.172077405564778
15,25,female,56,135,135,left,same,valid,clock,2,0.6414161597931525,1,j,1,same,1.8206389609131293,0.2890239408318128,0,0,0,0.3875195168930077,0,0,5.2710798470197915
15,25,female,57,75,75,right,same,valid,anti,3,0.5933872857003735,1,j,1,same,0.7655246692247601,0.2887635037859336,0,0,0,0.38746146336052334,0,0,4.253466212843705
15,25,female,58,105,105,left,same,valid,clock,2,0.5613747717961814,1,j,1,same,1.5153046431278199,0.28851217717569966,0,0,0,0.38752432795809,0,0,5.288879829829966
