subject,age,gender,ntrial,memory_ori,test_ori,cue,type,trial_type,which_change,pas,pas_rt,vis,test_key,test_acc,test,test_rt,contrast,fix_dur,cue_dur,jitter_dur,target_dur,mask_dur,retention_dur,trial_dur
16,24,female,1,165,165,left,same,valid,clock,2,1.4162412094083265,1,f,1,same,0.6862300028678874,0.5,0,0,0,0.38735181161700893,0,0,5.457249644142394
16,24,female,2,45,95,left,change,valid,clock,2,1.3934740341173892,1,f,0,same,0.8974880541609309,0.4069419370673367,0,0,0,0.38748363440936373,0,0,5.42118729035883
16,24,female,3,75,75,right,same,valid,anti,2,1.441427701774046,1,f,1,same,0.8183337599130027,0.3461892688284379,0,0,0,0.3875237264992393,0,0,5.270724884229821
16,24,female,4,135,85,left,change,valid,anti,1,2.017410230603673,0,j,1,change,1.5554547373130845,0.2977447647674634,0,0,0,0.3873325674139778,0,0,6.2448773534861175
16,24,female,5,45,45,right,same,valid,anti,2,1.7453016881654548,1,f,1,same,0.8236342549380424,0.3841426009313616,0,0,0,0.3874400142158265,0,0,5.4993351127805
16,24,female,6,165,15,right,same,catch,clock,2,0.801349788409425,1,j,0,change,1.2683697144993857,0,0,0,0,0.38742205295875465,0,0,6.267920041618709
16,24,female,7,105,105,left,same,valid,anti,2,1.2324597106571673,1,f,1,same,0.7938451906493356,0.3592485208446936,0,0,0,0.3874621450486302,0,0,5.566370370085679
16,24,female,8,105,105,right,same,valid,clock,2,0.897477790585981,1,f,1,same,0.7881161913664982,0.3390131387614046,0,0,0,0.38741307233067346,0,0,4.803985602770808
16,24,female,9,75,25,left,change,valid,anti,2,1.905394855767554,1,f,0,same,0.9147199551480298,0.32148335132223194,0,0,0,0.3874053746485515,0,0,5.8537273776373695
16,24,female,10,45,105,left,same,catch,anti,1,0.7131282671043664,0,j,0,change,1.152500046507157,0,0,0,0,0.3874483533691091,0,0,6.485912601810014
16,24,female,11,75,75,left,same,valid,clock,2,1.5365431381269445,1,f,1,same,0.5905481454683468,0.3055915320476997,0,0,0,0.3873675277172879,0,0,5.5995640546507275
16,24,female,12,15,165,right,change,catch,clock,1,1.3294476079772721,0,j,1,change,0.5612690525622384,0,0,0,0,0.3874377690572146,0,0,6.2830735686638945
16,24,female,13,75,125,left,change,valid,clock,2,0.7523133135882745,1,j,1,change,0.7928624533415132,0.2916768531327876,0,0,0,0.3875121799774206,0,0,4.581653154028572
16,24,female,14,165,165,left,same,valid,anti,3,1.7375000882020686,1,f,1,same,0.7029294809008206,0.2782209426426907,0,0,0,0.38737426318675716,0,0,5.601381348902578
16,24,female,15,105,165,left,same,catch,anti,2,1.8094894448749983,1,f,1,same,1.0763815253076245,0,0,0,0,0.38735341530082223,0,0,7.250675311162013
16,24,female,16,165,165,right,same,valid,clock,2,1.0004631438223441,1,f,1,same,0.8740085226163501,0.2658051127257629,0,0,0,0.3874499570529224,0,0,4.984820814017439
16,24,female,17,105,55,left,change,valid,anti,2,1.9054410418557381,1,j,1,change,0.8804194081640162,0.2541053033988927,0,0,0,0.387418524855093,0,0,5.870488116383967
16,24,female,18,135,135,right,same,valid,anti,2,0.6974262802687008,1,f,1,same,0.8427322021589134,0.24202087389119054,0,0,0,0.3873793949751416,0,0,4.403927485276654
16,24,female,19,165,115,right,change,valid,anti,2,0.6975375759102462,1,f,0,same,1.0131165281400172,0.23013758708379634,0,0,0,0.3873967147583244,0,0,4.771674264919966
16,24,female,20,15,45,left,change,catch,anti,1,0.8735158710151154,0,j,1,change,1.026935469696582,0,0,0,0,0.3874287884300429,0,0,6.673339914850658
16,24,female,21,135,185,left,change,valid,clock,1,0.9682765725565332,0,j,1,change,0.9049525598320542,0.21813725089466451,0,0,0,0.38744867410696315,0,0,5.446352934836796
16,24,female,22,45,95,right,change,valid,clock,3,1.913437008271103,1,j,1,change,0.7731583137201596,0.24777397122811967,0,0,0,0.3873935073906978,0,0,5.424750033837881
16,24,female,23,135,135,left,same,valid,anti,3,1.3774214820468842,1,f,1,same,0.627126564633727,0.2400777045935953,0,0,0,0.3874586169449685,0,0,4.722215059102382
16,24,female,24,135,85,right,change,valid,anti,3,1.2894796431610303,1,j,1,change,0.7692661736309674,0.23251251593851002,0,0,0,0.3873931866537532,0,0,5.137786890976713
16,24,female,25,135,135,right,same,valid,clock,3,1.4093986122361457,1,f,1,same,0.837398671252231,0.2250219010772047,0,0,0,0.3873883756032228,0,0,5.252250449191706
16,24,female,26,15,15,right,same,valid,anti,2,1.2414599037401786,1,f,1,same,0.7046361209841052,0.2180658643162981,0,0,0,0.38744707042224036,0,0,4.977390627174827
16,24,female,27,15,65,left,change,valid,clock,2,0.9451238717283559,1,f,0,same,1.7315151410184626,0.2110856390960099,0,0,0,0.38743969347797247,0,0,5.727942133964461
16,24,female,28,75,25,right,change,valid,anti,2,0.8733792371731397,1,f,0,same,1.2150222174323062,0.20394722549501304,0,0,0,0.38746567315229186,0,0,5.297250773136511
16,24,female,29,75,75,right,same,valid,clock,3,1.001456465442061,1,f,1,same,0.6117411449395149,0.19663900039874388,0,0,0,0.3874493155790333,0,0,4.791612863082264
16,24,female,30,105,105,left,same,valid,clock,3,1.8654621719906572,1,f,1,same,0.6430793675845052,0.18964510906255705,0,0,0,0.38746984272984264,0,0,5.673554166979557
16,24,female,31,45,355,right,change,valid,anti,1,1.5453781517990137,0,j,1,change,0.8696865953224915,0.18226584066372814,0,0,0,0.3875099348206277,0,0,5.329418100199291
16,24,female,32,45,45,right,same,valid,clock,2,1.0494633753942253,1,f,1,same,1.1836294695458491,0.20104004886199617,0,0,0,0.387413393067618,0,0,5.175835567264585
16,24,female,33,105,155,left,change,valid,clock,2,1.249496603719308,1,f,0,same,0.8691413428987289,0.1955442239615896,0,0,0,0.3874085820170876,0,0,5.611909210981139
16,24,female,34,75,125,right,change,valid,clock,2,0.7774369415574256,1,f,0,same,0.900446529661167,0.19036334094388208,0,0,0,0.3874259017993609,0,0,4.665959762937746
16,24,female,35,75,75,right,change,catch,anti,1,0.6254673935845858,0,j,1,change,0.9822151489088355,0,0,0,0,0.3874425801086545,0,0,6.064863869713918
16,24,female,36,165,215,left,change,valid,clock,1,0.41633005348012375,0,j,1,change,1.2047503032563327,0.18496281955364707,0,0,0,0.3874387312680483,0,0,4.682830835115055
16,24,female,37,15,15,right,same,valid,clock,3,1.7453491571995983,1,f,1,same,1.76814199142882,0.19845928229032211,0,0,0,0.38744001421491703,0,0,6.553440189979483
16,24,female,38,135,135,left,same,valid,clock,2,1.2174880413313076,1,f,1,same,0.7611653263074913,0.19405884770809095,0,0,0,0.38744482526544743,0,0,5.344200214123703
16,24,female,39,165,165,right,same,valid,anti,2,0.8414021069838782,1,f,1,same,0.9098675293207634,0.18955606293724575,0,0,0,0.3873983184412282,0,0,4.743916426274154
16,24,female,40,75,75,left,same,valid,anti,2,1.7294345219197567,1,f,1,same,0.6587242632840571,0.18521047818437136,0,0,0,0.38744867410696315,0,0,5.5041775957706705
16,24,female,41,45,355,left,change,valid,anti,2,1.2974954952524058,1,j,1,change,0.9849459013375963,0.1810863592228772,0,0,0,0.38740088433496567,0,0,4.923978341290422
16,24,female,42,165,115,left,change,valid,anti,1,0.7934545333246206,0,f,0,same,1.111667696231052,0.176755459077089,0,0,0,0.3874403349518616,0,0,4.929013266311813
16,24,female,43,45,45,left,same,valid,clock,2,1.953469120430782,1,f,1,same,0.8094586541501485,0.18821883975491888,0,0,0,0.38746150357565057,0,0,5.974153431465311
16,24,female,44,165,165,right,change,catch,clock,2,1.0254562319469187,1,f,0,same,0.9625450073799584,0,0,0,0,0.38740826128014305,0,0,6.267622397943342
16,24,female,45,15,65,right,change,valid,clock,2,0.9995330073370496,1,j,1,change,1.077922985981786,0.1845912361422229,0,0,0,0.3874117893838047,0,0,5.078072770030303
16,24,female,46,15,105,left,change,catch,anti,1,0.4734590364687392,0,j,1,change,0.9697307928418013,0,0,0,0,0.38744225937261945,0,0,6.361160771845789
16,24,female,47,45,155,left,change,catch,anti,1,0.6325354686705396,0,j,1,change,0.38481061458878685,0,0,0,0,0.3874307128498913,0,0,5.4251095796998925
16,24,female,48,105,55,right,change,valid,anti,1,0.6564550509938272,0,j,1,change,1.1296886095487935,0.18087108922448691,0,0,0,0.38740184654488985,0,0,5.08134620898818
16,24,female,49,135,185,right,change,valid,clock,1,0.2894655307454741,0,j,1,change,1.1475276651453896,0.19042842961129836,0,0,0,0.3874287884300429,0,0,4.585943328387657
16,24,female,50,165,215,right,change,valid,clock,2,0.9293683218611477,1,j,1,change,1.6521677632654246,0.19914258483741182,0,0,0,0.38739446960062196,0,0,5.438604256432882
16,24,female,51,15,15,left,same,valid,clock,3,1.1855000060941165,1,f,1,same,1.026792421119353,0.19614180110810542,0,0,0,0.3874631072585544,0,0,5.29580521274147
16,24,female,52,105,155,right,change,valid,clock,2,1.4654585797397885,1,f,0,same,0.8534268473313205,0.1932916608549195,0,0,0,0.3874467496862053,0,0,5.686746388985739
16,24,female,53,15,15,left,same,valid,anti,2,0.6654821859619915,1,j,0,change,0.7675688349108896,0.19032675771941965,0,0,0,0.3873845267626166,0,0,4.183258377162019
16,24,female,54,15,325,left,change,valid,anti,2,0.6734864915315484,1,j,1,change,0.7949799571615586,0.18742939689587373,0,0,0,0.3874554095773419,0,0,4.649103123911118
16,24,female,55,105,105,right,same,valid,anti,3,1.2734412035069909,1,f,1,same,0.9658896498904141,0.18468887832103814,0,0,0,0.3874467496862053,0,0,5.135376875267866
16,24,female,56,15,325,right,change,valid,anti,3,1.3614776597250966,1,j,1,change,0.7838135082765803,0.18186112056391773,0,0,0,0.3874127515937289,0,0,5.049649081955067
16,24,female,57,45,25,right,change,catch,anti,1,0.6734492860723549,0,j,1,change,0.5381432936201236,0,0,0,0,0.387466314626181,0,0,5.471797299524951
16,24,female,58,45,45,left,same,valid,anti,2,1.6802703938838022,1,f,1,same,0.6877355410288146,0.1790651483230838,0,0,0,0.3874611828377965,0,0,5.668638876753903
16,24,female,1,15,165,right,change,catch,clock,1,1.2483130852242539,0,j,1,change,0.4440051420506279,0,0,0,0,0.38738709265635407,0,0,6.209026044462917
16,24,female,2,45,45,right,same,valid,anti,2,1.5281796074314116,1,f,1,same,1.0560833812833152,0.17637698321649536,0,0,0,0.3873877341293337,0,0,5.723376126026778
16,24,female,3,45,95,right,change,valid,clock,2,1.0654248382370497,1,j,1,change,0.9841742087910461,0.1738099407802174,0,0,0,0.38745765473413485,0,0,5.467694114673577
16,24,female,4,45,105,left,same,catch,anti,2,0.6254494323275139,1,f,1,same,0.7044263591697018,0,0,0,0,0.3873755461345354,0,0,5.706087133902656
16,24,female,5,135,135,right,same,valid,clock,3,1.2564604393710397,1,f,1,same,0.6718975618232434,0.17113225017476336,0,0,0,0.3873611129820347,0,0,5.080586062963448
16,24,female,6,165,165,right,same,valid,anti,2,0.8254663030802476,1,f,1,same,1.3469486070725907,0.16846868538991072,0,0,0,0.38752308502535016,0,0,5.177044744696104
16,24,female,7,75,75,right,same,valid,clock,2,0.8014761586773602,1,f,1,same,0.6265476348562515,0.16592060685913435,0,0,0,0.38748684177608084,0,0,4.684754934694865
16,24,female,8,135,85,left,change,valid,anti,2,0.6894822732019747,1,j,1,change,0.6627668288956556,0.16347232648477056,0,0,0,0.3875121799774206,0,0,4.403509565330751
16,24,female,9,75,125,right,change,valid,clock,1,0.5694497633285209,0,j,1,change,0.9303735107396278,0.16090442118938103,0,0,0,0.3874384105311037,0,0,4.483076006263218
16,24,female,10,135,185,right,change,valid,clock,1,0.9615436673420845,0,j,1,change,1.033189194251463,0.16758900693067935,0,0,0,0.38752404723527434,0,0,5.228734995134801
16,24,female,11,15,45,left,change,catch,anti,1,0.681164928594626,0,j,1,change,0.4483738969056503,0,0,0,0,0.3874579754710794,0,0,6.080466428166801
16,24,female,12,165,165,right,change,catch,clock,1,1.072456028599845,0,j,1,change,0.5222902397890721,0,0,0,0,0.3874467496862053,0,0,6.517461869215367
16,24,female,13,15,105,left,change,catch,anti,1,0.3123491334654318,0,j,1,change,0.5354600102255063,0,0,0,0,0.387508972609794,0,0,5.410071197136858
16,24,female,14,105,55,left,change,valid,anti,1,0.3445357047330617,0,j,1,change,0.5608087953705763,0.17407746431817378,0,0,0,0.38743808979506866,0,0,4.058551771076054
16,24,female,15,105,105,right,same,valid,anti,1,1.2493622150332158,0,f,1,same,1.787049100301374,0.17989077438497808,0,0,0,0.3874759367272418,0,0,6.264829422590083
16,24,female,16,75,25,left,change,valid,anti,2,1.097525452062655,1,f,0,same,1.0852980061081325,0.18559479514010763,0,0,0,0.387469201256863,0,0,5.4157944231583315
16,24,female,17,75,75,left,same,valid,clock,2,0.8013985403913466,1,f,1,same,0.683679183737695,0.18367937835545334,0,0,0,0.3874733708335043,0,0,4.922206912389811
16,24,female,18,105,165,left,same,catch,anti,1,0.5534809235423381,0,j,0,change,0.538812350416265,0,0,0,0,0.3874259017993609,0,0,5.534359241803941
16,24,female,19,165,215,left,change,valid,clock,1,0.968527709407681,0,j,1,change,1.2066596489466974,0.18167013368760437,0,0,0,0.38742846769309836,0,0,5.49151202345729
16,24,female,20,105,155,right,change,valid,clock,2,0.7294588979093533,1,f,0,same,0.838328807738435,0.18688130609915882,0,0,0,0.3875064067160565,0,0,4.80712657746335
16,24,female,21,45,95,left,change,valid,clock,2,0.5773517538846136,1,j,1,change,0.7667823884748941,0.18506718478898238,0,0,0,0.3875163495540619,0,0,4.337125403566461
16,24,female,22,15,65,left,change,valid,clock,2,1.3053840148668314,1,f,0,same,0.9114728166005079,0.18330562326867217,0,0,0,0.38744129716269526,0,0,5.151348280946877
16,24,female,23,75,75,right,same,valid,anti,3,1.2254519340740444,1,f,1,same,0.9905430778280788,0.18144854579830805,0,0,0,0.3874515607367357,0,0,5.1299092764111265
16,24,female,24,15,15,right,same,valid,anti,1,2.689210929936962,0,j,0,change,1.6714087590635245,0.17958966412922595,0,0,0,0.3875429707022704,0,0,7.076677565300088
16,24,female,25,165,165,left,same,valid,anti,3,1.249470303308044,1,f,1,same,1.0256076196783397,0.1844968404647666,0,0,0,0.38747529525426216,0,0,5.152240570499998
16,24,female,26,75,125,left,change,valid,clock,3,1.1933789036065718,1,j,1,change,0.7949597507495128,0.18275185487478784,0,0,0,0.387469201256863,0,0,5.290933221973319
16,24,female,27,165,165,left,same,valid,clock,3,1.0734381244346878,1,f,1,same,2.0909330295316977,0.1810212458297702,0,0,0,0.38744322158254363,0,0,6.2005207481370235
16,24,female,28,135,135,left,same,valid,clock,3,0.7133819698492516,1,f,1,same,0.7414316789090662,0.17928584943361775,0,0,0,0.38752308502535016,0,0,4.934628404058458
16,24,female,29,15,15,left,same,valid,anti,3,0.8174180565792994,1,f,1,same,0.4791796965955655,0.17761657561458905,0,0,0,0.38751089702964236,0,0,4.292189868439891
16,24,female,30,45,355,left,change,valid,anti,2,0.7374163759186558,1,j,1,change,0.6945726856756664,0.17602062659419948,0,0,0,0.38742109074883047,0,0,4.048888294456447
16,24,female,31,15,325,left,change,valid,anti,3,1.0174230600723604,1,j,1,change,0.5867410006085265,0.17447605046665704,0,0,0,0.38748844545989414,0,0,4.375287620652671
16,24,female,32,165,115,left,change,valid,anti,2,0.665447546395626,1,f,0,same,1.436203221352116,0.17285753769445572,0,0,0,0.38743808979415917,0,0,5.325995197929842
16,24,female,33,15,325,right,change,valid,anti,1,0.6495146291217679,0,j,1,change,0.36940210185184696,0.1712496860019333,0,0,0,0.38750865187284944,0,0,4.069346165368188
16,24,female,34,45,25,right,change,catch,anti,1,0.5774194293326218,0,j,1,change,0.7258842871724482,0,0,0,0,0.3874541266304732,0,0,5.705708023100669
16,24,female,35,105,105,left,same,valid,clock,3,1.0321968348416704,1,f,1,same,0.7669575107238416,0.17545752292505917,0,0,0,0.387500954191637,0,0,4.924646756613583
16,24,female,36,15,15,left,same,valid,clock,2,1.0894550747289031,1,f,1,same,0.7137033480421451,0.17401729026155355,0,0,0,0.38747625746418635,0,0,4.785618935269667
16,24,female,37,45,155,left,change,catch,anti,1,0.3774756865532254,0,j,1,change,1.0137948863020938,0,0,0,0,0.3875535550141649,0,0,6.0335076858136745
16,24,female,38,165,115,right,change,valid,anti,2,0.8485208584706925,1,f,0,same,1.1272240685966608,0.172500403113305,0,0,0,0.38747144641365594,0,0,5.588652270719649
16,24,female,39,15,15,right,same,valid,clock,3,0.7215116834759101,1,f,1,same,0.7351667285693111,0.17098743620812723,0,0,0,0.3874929357743895,0,0,4.754291938410461
16,24,female,40,105,155,left,change,valid,clock,3,1.4334112082087813,1,f,0,same,0.974810621004508,0.1694615030523008,0,0,0,0.3875153873441377,0,0,5.314781600745846
16,24,female,41,75,75,left,same,valid,anti,2,0.6414086500126359,1,f,1,same,1.1614537327668586,0.16798366592190855,0,0,0,0.3875057652421674,0,0,4.41766367675973
16,24,female,42,45,45,left,same,valid,anti,3,1.041430203519667,1,f,1,same,0.7754631277857698,0.16657000327434607,0,0,0,0.38747208788663556,0,0,4.873882152348415
16,24,female,43,165,15,right,same,catch,clock,1,0.7133447643900581,0,f,1,same,1.4514808735075349,0,0,0,0,0.3875654222720186,0,0,6.891539991699574
16,24,female,44,165,165,right,same,valid,clock,2,1.3362119453895502,1,f,1,same,1.5382189874853793,0.16520324694776978,0,0,0,0.38747465378037305,0,0,6.532736314004069
16,24,female,45,105,105,left,same,valid,anti,2,1.1374950205618006,1,f,1,same,0.8136003274084942,0.16386777424366183,0,0,0,0.3875282168128251,0,0,5.16975343685499
16,24,female,46,45,355,right,change,valid,anti,2,1.3054818395658003,1,f,0,same,1.0770707885176307,0.16245638628690773,0,0,0,0.3875163495540619,0,0,5.445769514743915
16,24,female,47,15,65,right,change,valid,clock,3,0.9454227983505916,1,f,0,same,0.9481654180390251,0.16104526277084402,0,0,0,0.38745188147368026,0,0,5.4317882804089095
16,24,female,48,45,45,left,same,valid,clock,3,0.6414994185042815,1,f,1,same,0.7935764132780605,0.15961745223136392,0,0,0,0.38751506660719315,0,0,4.417682279488872
16,24,female,49,105,55,right,change,valid,anti,2,0.8494676732670996,1,j,1,change,0.5340445990823355,0.15822374508895504,0,0,0,0.38744386305552325,0,0,4.297842532383584
16,24,female,50,135,85,right,change,valid,anti,3,0.7454283791694252,1,f,0,same,0.8289459757479563,0.15689051936028836,0,0,0,0.3875153873441377,0,0,4.50286353743104
16,24,female,51,75,75,right,change,catch,anti,2,0.569474139319027,1,j,1,change,0.327732628738886,0,0,0,0,0.3874352031643866,0,0,5.534430445355611
16,24,female,52,135,135,right,same,valid,anti,2,0.720360238653484,1,f,1,same,0.9819665779505158,0.15560243782342098,0,0,0,0.38742461885249213,0,0,4.997535138310923
16,24,female,53,45,45,right,same,valid,clock,2,0.9214740289862675,1,f,1,same,0.6844034072501017,0.15434559033680922,0,0,0,0.3875535550132554,0,0,4.755950467987532
16,24,female,54,135,185,left,change,valid,clock,1,0.9054577201641223,0,j,1,change,1.1682681051061081,0.15302050637306192,0,0,0,0.3875051237691878,0,0,4.764840327638922
16,24,female,55,165,215,right,change,valid,clock,3,1.1694375111856061,1,j,1,change,0.7898690175388765,0.15645598283551687,0,0,0,0.38747529525426216,0,0,5.237560065968864
16,24,female,56,75,25,right,change,valid,anti,1,0.921460558043691,0,j,1,change,1.0641479853566125,0.15524315208467693,0,0,0,0.3874945394572933,0,0,4.994529835250432
16,24,female,57,135,135,left,same,valid,anti,2,0.8574832046215306,1,f,1,same,0.6481357819657205,0.1588078409397774,0,0,0,0.3875420084923462,0,0,4.648996318584068
16,24,female,58,105,105,right,same,valid,clock,1,0.7774805617509628,0,f,1,same,0.8475098963317578,0.15757856555690736,0,0,0,0.387487803986005,0,0,4.655125918028716
16,24,female,1,75,25,right,change,valid,anti,1,0.8318707738926605,0,f,0,same,0.6942054421324428,0.16108042647685716,0,0,0,0.3874191663289821,0,0,4.689288548223885
16,24,female,2,165,165,right,same,valid,clock,2,0.7774590723902293,1,f,1,same,0.5512088246214262,0.16429229529541167,0,0,0,0.3875981374176263,0,0,4.146344146651245
16,24,female,3,45,45,right,same,valid,anti,2,0.745462056524957,1,f,1,same,0.6861199901723012,0.16312884664346283,0,0,0,0.3874643902054231,0,0,4.306582607987366
16,24,female,4,165,165,left,same,valid,anti,2,0.601440685196394,1,f,1,same,0.7384096975392822,0.1619686229786071,0,0,0,0.38743905200499285,0,0,4.096220374350196
16,24,female,5,165,165,right,same,valid,anti,3,1.1534773312914695,1,f,1,same,0.6207759775898012,0.1608006798391437,0,0,0,0.3874303921138562,0,0,4.639939355100978
16,24,female,6,105,155,right,change,valid,clock,3,1.5054538071772186,1,f,0,same,0.7001929552106958,0.1596145939735124,0,0,0,0.3874701634667872,0,0,5.421547798430765
16,24,female,7,15,165,right,change,catch,clock,1,0.3454401822809814,0,j,1,change,0.3088341797574685,0,0,0,0,0.3874259017993609,0,0,5.0664601763664905
16,24,female,8,135,85,left,change,valid,anti,1,0.24824188167258399,0,j,1,change,1.087426094240982,0.15845936214470474,0,0,0,0.3874598998909278,0,0,4.367670765040202
16,24,female,9,135,85,right,change,valid,anti,1,0.4494996827907016,0,j,1,change,1.1409798250188032,0.16166423888431236,0,0,0,0.38742301516867883,0,0,4.606210040214137
16,24,female,10,45,355,left,change,valid,anti,1,0.3454344090205268,0,j,1,change,0.6204873145416059,0.1645826156510266,0,0,0,0.38751250071345567,0,0,4.227138047008339
16,24,female,11,135,185,left,change,valid,clock,1,0.27345178781888535,0,j,1,change,1.167707136584795,0.16736147881213603,0,0,0,0.3874740123073934,0,0,4.590364363328263
16,24,female,12,105,155,left,change,valid,clock,2,0.8414643299074669,1,f,0,same,1.030073557758442,0.17039611297316815,0,0,0,0.3874845966192879,0,0,4.706715457135942
16,24,female,13,105,165,left,same,catch,anti,1,0.2095049043855397,0,j,0,change,1.0272725639879354,0,0,0,0,0.3874586169449685,0,0,5.986895980591726
16,24,female,14,15,15,left,same,valid,clock,2,0.5044126957864137,1,f,1,same,0.7331945184814685,0.1693083492577987,0,0,0,0.3874554095773419,0,0,4.658045584385945
16,24,female,15,165,165,right,change,catch,clock,1,0.30547125525481533,0,f,0,same,0.7945434344865134,0,0,0,0,0.38751763250093063,0,0,5.721699955931399
16,24,female,16,165,115,left,change,valid,anti,1,0.6962488557719553,0,f,0,same,1.058989576697968,0.16826392085973085,0,0,0,0.3874878039869145,0,0,4.617270645982899
16,24,female,17,105,105,left,same,valid,clock,2,1.2894664929563078,1,f,1,same,0.775836465327302,0.17120710728898902,0,0,0,0.3875298204966384,0,0,5.334280148129437
16,24,female,18,45,355,right,change,valid,anti,1,0.5215031518791875,0,j,1,change,1.0693638058874058,0.17016664510052404,0,0,0,0.38748748324996996,0,0,4.541811559479356
16,24,female,19,15,15,right,same,valid,anti,2,0.7934769848952783,1,f,1,same,0.626967158484149,0.17293161152036535,0,0,0,0.38749967124476825,0,0,4.649074257607026
16,24,female,20,45,95,left,change,valid,clock,2,0.737441393383051,1,j,1,change,1.041509746227348,0.171949546702383,0,0,0,0.3874765782011309,0,0,4.783218541661881
16,24,female,21,45,155,left,change,catch,anti,1,0.30544752073728887,0,j,1,change,0.8133841508588375,0,0,0,0,0.38753783891479543,0,0,5.939862827319303
16,24,female,22,15,325,left,change,valid,anti,3,1.3283048230459826,1,j,1,change,0.9925306832783463,0.17095896920544723,0,0,0,0.387453164420549,0,0,5.223392804336072
16,24,female,23,45,95,right,change,valid,clock,2,1.6414990977682464,1,f,0,same,1.0322144753608882,0.16995179977795521,0,0,0,0.38746406946938805,0,0,6.267709317594381
16,24,female,24,75,75,right,same,valid,clock,1,1.041427637626839,0,f,1,same,1.3062249865452031,0.16895444477823318,0,0,0,0.38755547943401325,0,0,5.698136070629516
16,24,female,25,105,55,right,change,valid,anti,2,1.3454321638637339,1,j,1,change,0.7460567024027114,0.17168554157620786,0,0,0,0.38744803263307404,0,0,5.571803008638199
16,24,female,26,135,135,right,same,valid,clock,3,1.593420022054488,1,f,1,same,0.6843068654970921,0.17072713057176953,0,0,0,0.387415958960446,0,0,5.321144055048535
16,24,female,27,75,75,left,same,valid,anti,3,1.1374690408883907,1,f,1,same,0.7050168354699053,0.16975111912675717,0,0,0,0.3874403349518616,0,0,4.888544631476179
16,24,female,28,75,25,left,change,valid,anti,2,0.48945513887611014,1,f,0,same,0.8003468446886473,0.16879724029211507,0,0,0,0.3874862003021917,0,0,4.532652601719747
16,24,female,29,105,105,right,same,valid,clock,1,0.3534675808941756,0,j,0,change,0.4472214898733,0.16788423409597086,0,0,0,0.3874329580075937,0,0,3.743235822956194
16,24,female,30,135,185,right,change,valid,clock,2,0.7934227803889371,1,j,1,change,1.1996024789104922,0.1705097356691157,0,0,0,0.38747946483090345,0,0,5.006283553069807
16,24,female,31,75,75,left,same,valid,clock,2,0.8894224878777095,1,f,1,same,0.7565900170047826,0.16956519411092769,0,0,0,0.38740184654488985,0,0,4.853408886074249
16,24,female,32,105,55,left,change,valid,anti,3,0.9054304575438437,1,j,1,change,0.641372086026422,0.16865132702190533,0,0,0,0.3874910113536316,0,0,4.4165427019243
16,24,female,33,75,125,left,change,valid,clock,2,0.8174825246596811,1,j,1,change,1.1109190967290488,0.1677753614919723,0,0,0,0.38748010630479257,0,0,4.832547849106959
16,24,female,34,165,115,right,change,valid,anti,1,1.0970321589875311,0,j,1,change,1.4066370690816257,0.1669304172976968,0,0,0,0.3874977468240104,0,0,5.698013869939132
16,24,female,35,75,75,right,change,catch,anti,2,0.8974107566118619,1,j,1,change,0.7177417440771023,0,0,0,0,0.387527575338936,0,0,6.594983613560544
16,24,female,36,45,45,left,same,valid,clock,3,1.2881514724058434,1,f,1,same,1.055927503237399,0.16939246601649882,0,0,0,0.3874862003021917,0,0,5.667554145169561
16,24,female,37,135,135,left,same,valid,anti,2,0.5134895449446049,1,f,1,same,0.5394756339528612,0.16851553962075094,0,0,0,0.3874387312680483,0,0,4.387321341629104
16,24,female,38,15,65,right,change,valid,clock,2,0.8494339959106583,1,f,0,same,0.671663744754369,0.16767385463733658,0,0,0,0.387487803986005,0,0,4.57055213543299
16,24,female,39,165,15,right,same,catch,clock,1,0.48944295088040235,0,j,0,change,0.7847413996050818,0,0,0,0,0.3874483533691091,0,0,5.674601051631726
16,24,female,40,75,125,right,change,valid,clock,1,0.40814324871644203,0,j,1,change,0.6724514741372332,0.1668610608972449,0,0,0,0.3875153873441377,0,0,4.054783114623206
16,24,female,41,165,215,left,change,valid,clock,2,0.6654789785943649,1,j,1,change,0.7833535718200437,0.1692315871079192,0,0,0,0.3874727293605247,0,0,4.541094712912127
16,24,female,42,15,45,left,change,catch,anti,1,0.9774775468258667,0,j,1,change,0.9903528809527415,0,0,0,0,0.3874352031643866,0,0,6.4858689816155675
16,24,female,43,105,105,left,same,valid,anti,2,1.3922404806944542,1,f,1,same,1.6307973963876066,0.1683888669257021,0,0,0,0.38749902977178863,0,0,6.22951214020577
16,24,female,44,165,215,right,change,valid,clock,1,0.3854354097184114,0,j,1,change,0.535384316359341,0.16757899722484793,0,0,0,0.3874733708344138,0,0,4.195730224496401
16,24,female,45,15,15,left,same,valid,anti,3,1.2334806156350169,1,f,1,same,0.6702226746747328,0.169929000046944,0,0,0,0.3874845966192879,0,0,5.102245092888552
16,24,female,46,105,105,right,same,valid,anti,3,0.937430360039798,1,f,1,same,0.8632195808477263,0.16908138623904123,0,0,0,0.3875221228145165,0,0,5.015699420941928
16,24,female,47,15,105,left,change,catch,anti,1,0.24935996987642284,0,j,1,change,0.6695767109222288,0,0,0,0,0.3875243679722189,0,0,5.269122804315884
16,24,female,48,15,325,right,change,valid,anti,2,0.6081100845394758,1,j,1,change,0.7824468491144216,0.16827042738019687,0,0,0,0.38751089703055186,0,0,4.276504880650464
16,24,female,49,135,135,left,same,valid,clock,1,0.5294538944172018,0,f,1,same,1.115159236159343,0.16749016231224095,0,0,0,0.387466314626181,0,0,4.72842548420067
16,24,female,50,45,45,left,same,valid,anti,2,0.5294615920984143,1,f,1,same,0.7737426960229641,0.16975650865855813,0,0,0,0.3874060161233501,0,0,4.568742859598387
16,24,female,51,135,135,right,same,valid,anti,1,0.30551327176453924,0,j,0,change,0.29406297088189604,0.16894084095588008,0,0,0,0.38753783891388593,0,0,3.5569407105349455
16,24,female,52,15,15,right,same,valid,clock,3,0.8174526961447555,1,f,1,same,0.6452517173847809,0.1712052646720284,0,0,0,0.3874371275851445,0,0,4.590557126096428
16,24,female,53,45,105,left,same,catch,anti,2,0.5214874357807275,1,j,0,change,1.0920328357424296,0,0,0,0,0.3874425801086545,0,0,6.017847394751698
16,24,female,54,165,165,left,same,valid,clock,3,1.6004502502064497,1,f,1,same,0.6038882271022885,0.1704073909693669,0,0,0,0.3874894076698183,0,0,5.628474941802779
16,24,female,55,15,65,left,change,valid,clock,2,0.585441054684452,1,f,0,same,1.0915568624504886,0.16959497637620552,0,0,0,0.3874813892516613,0,0,4.522785457283135
16,24,female,56,45,45,right,same,valid,clock,3,0.4734654512030829,1,f,1,same,0.7784822225257813,0.1688090547092092,0,0,0,0.3875285375497697,0,0,4.469570745218334
16,24,female,57,75,75,right,same,valid,anti,3,0.6013730097483858,1,f,1,same,1.3674635691195363,0.16805525290620316,0,0,0,0.38748170998860587,0,0,4.958910098139313
16,24,female,58,45,25,right,change,catch,anti,1,0.2893593668914036,0,j,1,change,0.25454981073289673,0,0,0,0,0.3874319957976695,0,0,5.144325429739183
16,24,female,1,15,15,left,same,valid,anti,1,0.5678005351173852,0,f,1,same,0.4445048498600954,0.16732842073606752,0,0,0,0.3874467496862053,0,0,4.001345811275314
16,24,female,2,135,185,right,change,valid,clock,1,1.3134935220805346,0,j,1,change,0.6138018783622101,0.16944339678889309,0,0,0,0.3874765782011309,0,0,5.010903765512921
16,24,female,3,15,325,right,change,valid,anti,2,0.8815015738555303,1,j,1,change,0.7673122455362318,0.17157552888202604,0,0,0,0.38747048420373176,0,0,4.650436105716835
16,24,female,4,45,25,right,change,catch,anti,1,0.1774501559093551,0,j,1,change,0.39704062643795623,0,0,0,0,0.3874724086235801,0,0,5.175294163682338
16,24,female,5,75,25,left,change,valid,anti,2,0.7044529803179103,1,f,0,same,0.6089513769547921,0.1708284727967112,0,0,0,0.3875227642884056,0,0,4.55556603295463
16,24,female,6,135,135,right,same,valid,clock,2,0.8333852926816689,1,f,1,same,1.8968443355652198,0.17006557692488228,0,0,0,0.3874355239013312,0,0,5.670940162715851
16,24,female,7,135,135,left,same,valid,anti,1,0.5613617454746418,0,f,1,same,0.9029315977631995,0.16930088250830966,0,0,0,0.3874833136715097,0,0,4.1991682013913305
16,24,female,8,135,185,left,change,valid,clock,2,0.8094785398270687,1,j,1,change,0.719581489898701,0.17138427717042076,0,0,0,0.3874297506399671,0,0,4.705316724302975
16,24,female,9,75,125,left,change,valid,clock,2,0.6814622515330484,1,j,1,change,0.5382366280045972,0.17065355665595366,0,0,0,0.3874419386356749,0,0,4.008729170554943
16,24,female,10,75,125,right,change,valid,clock,2,0.5853473995630338,1,j,1,change,0.7332621939285673,0.16990581494562512,0,0,0,0.3874166004343351,0,0,4.230360809565354
16,24,female,11,135,135,left,same,valid,clock,2,0.6254680350575654,1,f,1,same,0.6274941289138951,0.16916664813821936,0,0,0,0.38739190370779397,0,0,4.225322997913281
16,24,female,12,45,45,right,same,valid,anti,1,0.45750046025750635,0,j,0,change,0.28017731608815666,0.16845880188814166,0,0,0,0.38750704818994564,0,0,3.668383891062149
16,24,female,13,165,165,left,same,valid,anti,3,1.337385521046599,1,f,1,same,0.5432535917707355,0.17048654682234832,0,0,0,0.3874643902054231,0,0,4.929357096075364
16,24,female,14,45,355,right,change,valid,anti,1,0.0894586028316553,0,j,1,change,0.5185530155349625,0.16975451496639193,0,0,0,0.3874522022106248,0,0,3.6697537575910246
16,24,female,15,15,65,left,change,valid,clock,3,0.5934739058229752,1,j,1,change,0.951595697252742,0.17171587080986184,0,0,0,0.3874419386356749,0,0,4.6594013384983555
16,24,female,16,15,15,right,same,valid,clock,3,0.5054489961257786,1,f,1,same,0.43686971225452,0.1710284069269885,0,0,0,0.38753591449403757,0,0,4.177462664642007
16,24,female,17,45,45,left,same,valid,anti,1,0.8894503919727867,0,j,0,change,0.46101348954562127,0.1703267465872756,0,0,0,0.38745829620802397,0,0,4.459357846599232
16,24,female,18,105,105,right,same,valid,clock,3,0.873457817668168,1,f,1,same,0.8630960972113826,0.1721984891196251,0,0,0,0.387495822404162,0,0,4.516334158909558
16,24,female,19,15,325,left,change,valid,anti,1,0.46543997700973705,0,j,1,change,0.9611943850550233,0.1715360264829091,0,0,0,0.3875064067160565,0,0,4.510471733152372
16,24,female,20,165,115,left,change,valid,anti,1,0.441454322921345,0,j,1,change,0.9629728701638669,0.17328831739064615,0,0,0,0.3874807477786817,0,0,4.577085221670131
16,24,female,21,45,355,left,change,valid,anti,3,0.9054211561788179,1,j,1,change,0.6547609196422854,0.17493960325949282,0,0,0,0.38749069061668706,0,0,4.733029980544416
16,24,female,22,45,95,right,change,valid,clock,1,0.14551985328216688,0,j,1,change,0.28904857301040465,0.17431849097170454,0,0,0,0.38745124000070064,0,0,3.077139426175563
16,24,female,23,165,165,right,change,catch,clock,1,0.16144795950458501,0,j,1,change,0.4934338778803067,0,0,0,0,0.38749293577348,0,0,5.1131475754546045
16,24,female,24,165,15,right,same,catch,clock,1,0.1044690813005218,0,j,0,change,0.3678167002472037,0,0,0,0,0.38741403454150714,0,0,5.004262911736987
16,24,female,25,75,75,right,same,valid,anti,3,0.7841319998387917,1,f,1,same,1.811308022074627,0.17592468145968793,0,0,0,0.3874855588292121,0,0,5.579097844584794
16,24,female,26,75,75,right,change,catch,anti,1,0.1294458118518378,0,j,1,change,0.43157434901695524,0,0,0,0,0.387530141233583,0,0,5.128658403205918
16,24,female,27,135,135,right,same,valid,anti,2,0.4477285746261259,1,f,1,same,1.099681444289672,0.17534604215303945,0,0,0,0.38748427588234335,0,0,4.770758882322298
16,24,female,28,45,95,left,change,valid,clock,2,0.3374666674362743,1,f,0,same,0.7884112691490373,0.17477565256506278,0,0,0,0.38757472363704437,0,0,4.203706946708735
16,24,female,29,45,45,left,same,valid,clock,2,0.40146935905886494,1,f,1,same,0.616490614281247,0.1741715957575144,0,0,0,0.38744546673933655,0,0,4.174156831275468
16,24,female,30,15,105,left,change,catch,anti,1,0.1613696997455918,0,j,1,change,1.1009480335951594,0,0,0,0,0.3874659938892364,0,0,5.846124634440457
16,24,female,31,75,75,left,same,valid,clock,1,0.41552853241773846,0,f,1,same,0.8763941623356004,0.17357002723653497,0,0,0,0.38751185924047604,0,0,4.580258270036211
16,24,female,32,15,15,left,same,valid,clock,2,1.281439415078239,1,f,1,same,1.5114766012939072,0.17513627677756327,0,0,0,0.38746727683610516,0,0,6.015124019268114
16,24,female,33,105,155,right,change,valid,clock,1,0.9134084627021366,0,j,1,change,1.1653378544378938,0.1745820636639474,0,0,0,0.38742205295875465,0,0,5.4810030848457245
16,24,female,34,45,105,left,same,catch,anti,1,0.3214628673476909,0,f,1,same,0.9445638654160575,0,0,0,0,0.3874679183099943,0,0,6.111423294851193
16,24,female,35,105,105,left,same,valid,clock,1,0.24851258346370741,0,j,0,change,2.404440664026879,0.1761115685416627,0,0,0,0.38745669252421067,0,0,5.614522253034011
16,24,female,36,165,115,right,change,valid,anti,1,0.24945683236546756,0,f,0,same,0.761644506967059,0.17777465659199915,0,0,0,0.3874271847462296,0,0,4.077991944376663
16,24,female,37,165,165,right,same,valid,anti,1,0.281449357917154,0,f,1,same,0.7689409465965582,0.17951542135113563,0,0,0,0.3874711256767114,0,0,4.181210793944956
16,24,female,38,135,85,right,change,valid,anti,1,0.5133968520331109,0,f,0,same,1.1880707108994102,0.18128952133873938,0,0,0,0.38753783891388593,0,0,4.97540302172456
16,24,female,39,105,105,right,same,valid,anti,1,0.2654599909801618,0,f,1,same,0.7978450982764116,0.18290699393710325,0,0,0,0.3874759367272418,0,0,4.341652923098081
16,24,female,40,105,55,left,change,valid,anti,1,0.4574077673451029,0,j,1,change,1.1367512321103277,0.1844223407643566,0,0,0,0.38747401230648393,0,0,4.8356682966505105
16,24,female,41,15,15,right,same,valid,anti,1,0.297390293609169,0,f,1,same,0.8152424994113971,0.18589108869907245,0,0,0,0.38748684177608084,0,0,4.05470806223002
16,24,female,42,15,65,right,change,valid,clock,1,0.28144166023503203,0,f,0,same,0.9373697408000226,0.18748236559043457,0,0,0,0.387413393067618,0,0,4.3972173523698075
16,24,female,43,165,165,left,same,valid,clock,2,0.5214800588355502,1,f,1,same,0.8128437094865149,0.18913996126793403,0,0,0,0.38747208788754506,0,0,4.556780662911478
16,24,female,44,105,155,left,change,valid,clock,2,1.0254738724661365,1,f,0,same,0.8212146171272252,0.1885443953589051,0,0,0,0.38748010630479257,0,0,4.879815781657271
16,24,female,45,165,165,right,same,valid,clock,3,0.8334529681296772,1,f,1,same,0.7937066323856925,0.1879711099428144,0,0,0,0.3874685597829739,0,0,4.740574028921401
16,24,female,46,165,215,left,change,valid,clock,3,0.6334495683204295,1,j,1,change,0.7772560460480236,0.18741705465525177,0,0,0,0.3875301412326735,0,0,4.524892697530959
16,24,female,47,75,75,left,same,valid,anti,1,0.3374124629308426,0,j,0,change,0.8086208898394034,0.18687939848659924,0,0,0,0.3875391218607547,0,0,4.111828064591464
16,24,female,48,165,215,right,change,valid,clock,1,0.4334461685111819,0,j,1,change,1.1513360929520786,0.18845197457351504,0,0,0,0.38742365664165845,0,0,4.807498632058014
16,24,female,49,135,85,left,change,valid,anti,1,0.24149871288318536,0,j,1,change,0.516804358940135,0.19012445241300946,0,0,0,0.38746888051991846,0,0,3.7298713653317463
16,24,female,50,75,25,right,change,valid,anti,1,0.3534791274159943,0,j,1,change,0.8719606186623423,0.19174481809740884,0,0,0,0.3874419386356749,0,0,4.216171096361904
16,24,female,51,105,105,left,same,valid,anti,3,0.7293931468821029,1,f,1,same,1.3553410040722156,0.19322906435633347,0,0,0,0.38746150357565057,0,0,5.418851685567461
16,24,female,52,45,45,right,same,valid,clock,3,0.5051847090689989,1,f,1,same,0.5913897586196981,0.19268977111124924,0,0,0,0.3874329580066842,0,0,4.164574180309501
16,24,female,53,15,165,right,change,catch,clock,1,0.3054183336953429,0,j,1,change,0.9348939740630158,0,0,0,0,0.3875663844828523,0,0,5.753208169036043
16,24,female,54,105,55,right,change,valid,anti,2,1.2081209254401983,1,j,1,change,0.5764925002131349,0.19214541864089663,0,0,0,0.3874345616904975,0,0,4.968095356309277
16,24,female,55,15,45,left,change,catch,anti,1,0.48947438307914126,0,j,1,change,0.2538983944559732,0,0,0,0,0.387508972609794,0,0,5.456213985275099
16,24,female,56,75,75,right,same,valid,clock,2,0.9203116791150023,1,f,1,same,0.7077498330563685,0.1915935154286706,0,0,0,0.387394790338476,0,0,4.720632544128421
16,24,female,57,105,165,left,same,catch,anti,2,0.3534832969935451,1,j,0,change,0.6410869510837074,0,0,0,0,0.3874329580075937,0,0,5.222277282025061
16,24,female,58,45,155,left,change,catch,anti,1,0.24022635031815298,0,j,1,change,0.5691245362950212,0,0,0,0,0.38748427588234335,0,0,5.300689070767476
16,24,female,1,105,55,left,change,valid,anti,1,0.7201283460053673,0,j,1,change,0.9783294235530775,0.19103154987039267,0,0,0,0.38749325651042454,0,0,4.8652110351395095
16,24,female,2,135,135,right,same,valid,clock,3,1.7452638412323722,1,f,1,same,0.5818539352148946,0.1925258573181745,0,0,0,0.3875339900732797,0,0,5.526499267758481
16,24,female,3,105,55,right,change,valid,anti,1,0.20938142074828647,0,j,1,change,0.6680166475189253,0.1919908867419946,0,0,0,0.38748170998860587,0,0,3.6425645851495574
16,24,female,4,165,165,right,same,valid,anti,2,0.3134771645081855,1,f,1,same,0.4619619080240227,0.19340353333474658,0,0,0,0.3874807477786817,0,0,3.9907127475526067
16,24,female,5,45,105,left,same,catch,anti,1,0.11349846142638853,0,j,0,change,0.1976299480857051,0,0,0,0,0.3874573339971903,0,0,5.0196480106942545
16,24,female,6,105,155,left,change,valid,clock,1,0.4237644098993769,0,f,0,same,0.697228064976116,0.19288800953651059,0,0,0,0.38744129716178577,0,0,4.34762985186444
16,24,female,7,75,125,right,change,valid,clock,2,0.21746077871011948,1,j,1,change,0.7718728009485858,0.19423967339743653,0,0,0,0.38752468870916346,0,0,4.12882358261686
16,24,female,8,15,15,right,same,valid,clock,2,0.11062530189337849,1,f,1,same,0.9969382472763755,0.19373686048761574,0,0,0,0.3874352031643866,0,0,4.305518724288959
16,24,female,9,105,105,right,same,valid,anti,1,0.2246747890039842,0,j,0,change,0.9997555986201405,0.19323355219580413,0,0,0,0.38743167506072496,0,0,4.062736423054048
16,24,female,10,135,135,right,same,valid,anti,1,0.16145597792365152,0,f,1,same,1.1033015996426911,0.19454957856248756,0,0,0,0.3874669561000701,0,0,4.253450004523074
16,24,female,11,105,155,right,change,valid,clock,1,0.2414765820503817,0,f,0,same,0.8398118943287045,0.19583225479285749,0,0,0,0.387461182838706,0,0,4.089135620955858
16,24,female,12,135,85,left,change,valid,anti,1,0.16942275729707035,0,j,1,change,1.2328959125961774,0.19722427877970172,0,0,0,0.3875115385035315,0,0,4.456563588300014
16,24,female,13,15,65,right,change,valid,clock,2,0.27344056203401124,1,f,0,same,0.8506851898537207,0.19867094185362744,0,0,0,0.38751827397481975,0,0,3.857354589197712
16,24,female,14,75,75,right,change,catch,anti,1,0.12154606645253807,0,j,1,change,0.16000400279426685,0,0,0,0,0.38748908693378326,0,0,5.144276036284282
16,24,female,15,75,75,right,same,valid,anti,1,0.12772666303590086,0,f,1,same,0.9351233008173949,0.1981542304107321,0,0,0,0.3874573339980998,0,0,4.244708004497625
16,24,female,16,45,45,right,same,valid,clock,3,0.4174811775656053,1,f,1,same,0.8784648385953915,0.19965225464786696,0,0,0,0.38746086210176145,0,0,4.529072859194457
16,24,female,17,75,75,left,same,valid,clock,3,0.8974720173255264,1,f,1,same,0.6960926569890944,0.19910721785472818,0,0,0,0.3874079405431985,0,0,4.8114892383209735
16,24,female,18,75,75,left,same,valid,anti,3,1.0254854189879552,1,f,1,same,0.6527393160995416,0.19858403789002843,0,0,0,0.38744642894926073,0,0,4.501727808707983
16,24,female,19,15,65,left,change,valid,clock,2,1.929470957610647,1,f,0,same,0.8164128676999098,0.19808013741882485,0,0,0,0.38743424095355294,0,0,6.047604064632651
16,24,female,20,135,185,left,change,valid,clock,1,0.6732860310821707,0,j,1,change,0.8019357743960427,0.19759312794470107,0,0,0,0.3875019164015612,0,0,4.113545609723587
16,24,female,21,165,165,left,same,valid,clock,3,0.4654566553190307,1,f,1,same,0.8706379004324845,0.19901094470176883,0,0,0,0.3874377690581241,0,0,4.329443117663686
16,24,female,22,135,135,left,same,valid,clock,3,0.5694337264922069,1,f,1,same,0.7323952425767857,0.19850081913154727,0,0,0,0.38744867410605366,0,0,4.503035452312361
16,24,female,23,45,355,right,change,valid,anti,2,0.6654924495369414,1,j,1,change,0.7502737487902778,0.19800915133291258,0,0,0,0.3874958224050715,0,0,4.401053042796775
16,24,female,24,105,105,left,same,valid,clock,3,0.4413725350586901,1,f,1,same,0.908624353795858,0.19753366483425572,0,0,0,0.3874733708344138,0,0,4.320670006177352
16,24,female,25,15,15,left,same,valid,clock,3,1.5214681915776964,1,f,1,same,0.7311725942026897,0.1970722376090655,0,0,0,0.3874060161233501,0,0,5.365912165608279
16,24,female,26,135,185,right,change,valid,clock,1,0.13741900595960033,0,j,1,change,0.5914279262897253,0.19662288217687546,0,0,0,0.38743905200499285,0,0,3.398695948646491
16,24,female,27,15,105,left,change,catch,anti,1,0.12153708582445688,0,j,1,change,0.4625546294810192,0,0,0,0,0.3874239773795125,0,0,5.253415044219764
16,24,female,28,165,165,left,same,valid,anti,2,0.24023789683997165,1,f,1,same,0.3673006348662966,0.1979410809009396,0,0,0,0.38747689893807546,0,0,3.7699057226491277
16,24,female,29,45,45,left,same,valid,anti,1,0.1455294753832277,0,j,0,change,0.6162061208115119,0.19747662113941394,0,0,0,0.38753110344350716,0,0,3.8570421916328996
16,24,female,30,45,25,right,change,catch,anti,1,0.13746102247023373,0,j,1,change,0.5714938184419225,0,0,0,0,0.3874159589613555,0,0,5.487437704910917
16,24,female,31,75,25,left,change,valid,anti,2,0.3520072666105989,1,f,0,same,0.4521794380816573,0.19883029072157127,0,0,0,0.387535593757093,0,0,3.685751784418244
16,24,female,32,105,165,left,same,catch,anti,1,0.24149133593982697,0,f,1,same,0.9691929173632161,0,0,0,0,0.38744803263307404,0,0,5.799585094979193
16,24,female,33,45,45,right,same,valid,anti,1,0.1842452840473925,0,f,1,same,0.6708888448411017,0.19834453814210012,0,0,0,0.38754361217525,0,0,3.6143682994097617
16,24,female,34,165,165,right,same,valid,clock,3,1.2094487754593501,1,f,1,same,0.9626293611381698,0.1997516866940492,0,0,0,0.38753366933724465,0,0,5.35341722522935
16,24,female,35,45,355,left,change,valid,anti,2,0.545451600508386,1,j,1,change,0.6805920928127307,0.19923820376296741,0,0,0,0.38744803263216454,0,0,4.345339470950421
16,24,female,36,75,75,right,same,valid,clock,1,0.2254657257535655,0,f,1,same,0.7603375048356611,0.1987454301642877,0,0,0,0.3875259716551227,0,0,3.9593466208134487
16,24,female,37,165,165,right,change,catch,clock,1,0.28147629980139754,0,f,0,same,0.8196375546776835,0,0,0,0,0.38748523809226754,0,0,5.752728988376475
16,24,female,38,75,25,right,change,valid,anti,1,0.2478932408585024,0,f,0,same,0.6561080138635589,0.20016622446331572,0,0,0,0.3874483533700186,0,0,3.845945021877924
16,24,female,39,45,95,right,change,valid,clock,1,0.2734796919130531,0,j,1,change,0.7844399070891086,0.20153710452981222,0,0,0,0.3875298204966384,0,0,4.262993846345125
16,24,female,40,165,215,right,change,valid,clock,2,2.273383150160953,1,j,1,change,0.8486097025424897,0.20279086378168276,0,0,0,0.387548743962725,0,0,6.146787084060634
16,24,female,41,45,45,left,same,valid,clock,1,0.2971664193792094,0,j,0,change,0.7067350220759181,0.20233860881854626,0,0,0,0.3873819608688791,0,0,4.151389655984531
16,24,female,42,15,325,left,change,valid,anti,2,0.18548878030924243,1,f,0,same,0.9350370226393352,0.20353138060434883,0,0,0,0.38748684177608084,0,0,4.320469545727974
16,24,female,43,165,115,left,change,valid,anti,2,0.27346140991994616,1,f,0,same,0.6053485413858652,0.20309396914115824,0,0,0,0.38745508884039737,0,0,4.0299654694854325
16,24,female,44,15,325,right,change,valid,anti,2,0.20946545376864378,1,j,1,change,0.8126018740003929,0.20265310691343053,0,0,0,0.3874926150374449,0,0,4.140136928920583
16,24,female,45,15,165,right,change,catch,clock,1,0.1454550644648407,0,j,1,change,0.6065275695664241,0,0,0,0,0.38743808979506866,0,0,5.472058058478069
16,24,female,46,165,215,left,change,valid,clock,1,0.08787031459723949,0,j,1,change,0.5973429528694396,0.20220709717483448,0,0,0,0.387495822404162,0,0,3.8638007557838137
16,24,female,47,15,15,right,same,valid,anti,2,0.1614553364488529,1,f,1,same,0.9765454859198144,0.20338485866237277,0,0,0,0.3874509192637561,0,0,4.376387106126458
16,24,female,48,135,85,right,change,valid,anti,2,0.4094861733610742,1,j,1,change,0.6377063860609269,0.20295432138095965,0,0,0,0.38750544450522284,0,0,4.328045347040643
16,24,female,49,15,45,left,change,catch,anti,1,0.12147678732162603,0,j,1,change,0.3827405798019754,0,0,0,0,0.3874355239013312,0,0,5.128840260926154
16,24,female,50,75,125,left,change,valid,clock,1,0.3841954415611326,0,j,1,change,2.0334566886758694,0.20251978871678789,0,0,0,0.3874047331755719,0,0,5.511480129398478
16,24,female,51,15,15,left,same,valid,anti,1,0.18545061263921525,0,j,0,change,0.2736804730993754,0.2036645389548309,0,0,0,0.3874371275851445,0,0,3.267998942851591
16,24,female,52,105,105,left,same,valid,anti,2,0.19342733485063945,1,f,1,same,1.0169907069739565,0.20475993493568434,0,0,0,0.38751185924047604,0,0,4.086322118453609
16,24,female,53,45,95,left,change,valid,clock,2,0.2814538482316493,1,f,0,same,0.9035579965757279,0.20434632576492462,0,0,0,0.38744450452941237,0,0,4.165714399347053
16,24,female,54,105,105,right,same,valid,clock,1,0.16940768267068052,0,j,0,change,0.8181191870471594,0.20393392682479755,0,0,0,0.3874573339980998,0,0,4.151171555015026
16,24,female,55,165,115,right,change,valid,anti,1,0.15349016075924737,0,j,1,change,0.6071552513267306,0.20500737737353053,0,0,0,0.3873829230788033,0,0,4.136523509038852
16,24,female,56,165,15,right,same,catch,clock,1,0.28949439704956603,0,j,0,change,0.3555876506097775,0,0,0,0,0.38740024286198604,0,0,5.175522207488939
16,24,female,57,135,135,left,same,valid,anti,1,0.21584907669512177,0,f,1,same,0.7615097975449316,0.20615245057437775,0,0,0,0.3874473911600944,0,0,4.108561681840911
16,24,female,58,45,155,left,change,catch,anti,1,0.16145469497587328,0,j,1,change,0.5216846888633881,0,0,0,0,0.38741948706501717,0,0,5.394162014380527
16,24,female,1,135,135,left,same,valid,anti,1,0.1520763532998899,0,j,0,change,0.8190374562755096,0.2073167405466244,0,0,0,0.38744450452941237,0,0,3.953316449752492
16,24,female,2,165,215,left,change,valid,clock,2,0.33748398721945705,1,j,1,change,0.6457908758093254,0.2085343307279936,0,0,0,0.38749293577348,0,0,4.3188427690865865
16,24,female,3,165,115,left,change,valid,anti,2,0.32940142188999744,1,f,0,same,0.7444219073440763,0.20809894292341963,0,0,0,0.3875452158590633,0,0,4.332730348301084
16,24,female,4,165,165,right,same,valid,clock,2,0.35345763805617025,1,f,1,same,0.5274826465392835,0.2076778855636663,0,0,0,0.38743808979506866,0,0,3.8743863504723777
16,24,female,5,135,85,left,change,valid,anti,2,0.16947696180159255,1,j,1,change,0.8004504426489802,0.2072694669793858,0,0,0,0.38745348515749356,0,0,3.9162495485625186
16,24,female,6,45,95,left,change,valid,clock,2,0.20946513303169922,1,j,1,change,0.5563095006709773,0.2068720995653784,0,0,0,0.3875227642884056,0,0,4.135423382092085
16,24,female,7,75,75,left,same,valid,clock,2,0.2974528372687928,1,f,1,same,0.6502571346272816,0.20648428705965638,0,0,0,0.3874499570538319,0,0,3.968374397255502
16,24,female,8,15,15,right,same,valid,clock,1,0.12153323698476015,0,j,0,change,0.30845699337533006,0.20610461296609678,0,0,0,0.387466314626181,0,0,3.6608764066713775
16,24,female,9,15,65,left,change,valid,clock,1,0.13748764361753274,0,j,1,change,0.6067585000046165,0.20722388617572535,0,0,0,0.3874595791558022,0,0,3.9133658047185236
16,24,female,10,45,45,right,same,valid,clock,2,0.1854291232784817,1,f,1,same,0.8568465422331428,0.20839274393455492,0,0,0,0.3875019164015612,0,0,4.204393644025004
16,24,female,11,165,165,right,change,catch,clock,1,0.12140814966278413,0,j,1,change,0.6325986538040524,0,0,0,0,0.387471767149691,0,0,5.39425470729293
16,24,female,12,45,355,right,change,valid,anti,1,0.08038014998965082,0,j,1,change,0.5388133126261891,0.20797567435576164,0,0,0,0.3874881247229496,0,0,3.4708087889557646
16,24,female,13,75,25,right,change,valid,anti,1,0.19354055491294275,0,f,0,same,1.0274069526740277,0.20918762483691306,0,0,0,0.3874974260879753,0,0,4.351009454677296
16,24,female,14,135,135,right,same,valid,anti,2,0.31347203271980106,1,f,1,same,0.70771775938465,0.21048278566076933,0,0,0,0.38743103358683584,0,0,4.181494966678656
16,24,female,15,165,165,left,same,valid,clock,3,0.3293773666355264,1,f,1,same,0.8919335356540614,0.2100177815824602,0,0,0,0.38748203072555043,0,0,4.311206669271087
16,24,female,16,165,165,left,same,valid,anti,2,0.5213896110808491,1,f,1,same,0.57551232879905,0.2095516988194664,0,0,0,0.3874303921138562,0,0,4.348644021371001
16,24,female,17,75,125,right,change,valid,clock,1,0.9854209124187037,0,j,1,change,1.2289428325284462,0.20910471875977632,0,0,0,0.3874275054831742,0,0,5.05070719239302
16,24,female,18,105,55,left,change,valid,anti,1,0.4174507075767906,0,j,1,change,0.725284830243254,0.21037961632412205,0,0,0,0.38754970617355866,0,0,4.40270355395478
16,24,female,19,105,105,left,same,valid,clock,2,0.45740840881899203,1,f,1,same,1.0850484729398886,0.21158025937247493,0,0,0,0.38747529525426216,0,0,4.706090982743262
16,24,female,20,105,155,right,change,valid,clock,2,0.15340644847583462,1,f,0,same,0.6938952897244235,0.21115717331551265,0,0,0,0.3875317449164868,0,0,4.009333438534668
16,24,female,21,75,75,right,change,catch,anti,1,0.08956380447580159,0,j,1,change,0.2119360887181756,0,0,0,0,0.3875128214504002,0,0,5.050858259387496
16,24,female,22,45,25,right,change,catch,anti,1,0.032116650661919266,0,j,1,change,0.4451408707745941,0,0,0,0,0.38740826128014305,0,0,5.035284246503579
16,24,female,23,165,115,right,change,valid,anti,2,0.328141888792743,1,f,0,same,0.7664064850405339,0.21072382054415983,0,0,0,0.3874781818849442,0,0,4.190683111480212
16,24,female,24,45,155,left,change,catch,anti,1,0.21747296670582728,0,j,1,change,0.6591530882778898,0,0,0,0,0.3874589376810036,0,0,5.503241044550123
16,24,female,25,165,15,right,same,catch,clock,1,0.11170554316413472,0,j,0,change,0.7454755274675335,0,0,0,0,0.38748908693287376,0,0,5.441094456322389
16,24,female,26,15,15,right,same,valid,anti,3,0.7763089105146719,1,f,1,same,0.3786255276918382,0.21027866603532586,0,0,0,0.3874089027531227,0,0,4.182457497573523
16,24,female,27,75,75,right,same,valid,clock,1,0.1695016585299527,0,j,0,change,0.6039658453883021,0.20982148012613533,0,0,0,0.3875031993484299,0,0,3.6160402999275902
16,24,female,28,15,65,right,change,valid,clock,3,0.2574544024646457,1,f,0,same,0.707861128697914,0.21105178659325557,0,0,0,0.3874701634667872,0,0,4.115711865526464
16,24,female,29,15,45,left,change,catch,anti,1,0.28947739800423733,0,j,1,change,0.6159716622696578,0,0,0,0,0.38741884559112805,0,0,5.425063393612618
16,24,female,30,45,105,left,same,catch,anti,1,0.09608053314150311,0,j,0,change,0.21219428177755617,0,0,0,0,0.3874813892516613,0,0,4.879443406326573
16,24,female,31,135,185,right,change,valid,clock,2,0.3278278875441174,1,j,1,change,0.9516046778808231,0.21062182120670542,0,0,0,0.38744707042224036,0,0,4.265769181178257
16,24,female,32,15,15,left,same,valid,clock,1,0.1854615176880543,0,j,0,change,0.6748063231325432,0.2101797997670964,0,0,0,0.3875631771152257,0,0,4.1252771967092485
16,24,female,33,105,105,left,same,valid,anti,1,0.1374289487985152,0,j,0,change,0.4474543447313408,0.21136478012219873,0,0,0,0.387466314626181,0,0,3.8617897365529643
16,24,female,34,135,185,left,change,valid,clock,2,0.3454350504935064,1,j,1,change,0.7093705157003569,0.21244663221476429,0,0,0,0.38754104628151254,0,0,4.319202956423396
16,24,female,35,15,325,left,change,valid,anti,2,0.8895045964782184,1,j,1,change,0.4745694269904561,0.21205877564042136,0,0,0,0.38749389798431366,0,0,4.484753138569431
16,24,female,36,105,165,left,same,catch,anti,1,0.2173709724283981,0,j,0,change,0.767751975577994,0,0,0,0,0.3874871625130254,0,0,5.2688838554604445
16,24,female,37,75,75,left,same,valid,anti,3,0.8880179817833778,1,f,1,same,1.1240859805338914,0.2116639538053478,0,0,0,0.38748010630479257,0,0,4.948473646026287
16,24,female,38,105,155,left,change,valid,clock,1,0.08146103273338667,0,j,1,change,0.6672795945378311,0.2112608346001889,0,0,0,0.38749486019423784,0,0,4.185786423984609
16,24,female,39,105,55,right,change,valid,anti,1,0.11343142745135992,0,j,1,change,0.8710821207878325,0.21233435312405224,0,0,0,0.3875099348197182,0,0,4.187024146984186
16,24,female,40,105,105,right,same,valid,anti,1,0.11344714355072938,0,j,0,change,0.5136983445490841,0.2133330024005496,0,0,0,0.3875121799765111,0,0,3.7419653848101007
16,24,female,41,75,25,left,change,valid,anti,1,0.11348916006045329,0,j,1,change,0.479554637820911,0.21428239848627478,0,0,0,0.38750929334582906,0,0,3.6924012980862244
16,24,female,42,45,45,left,same,valid,anti,2,0.17726444934942265,1,f,1,same,0.6894187673315173,0.21520549722452453,0,0,0,0.3874255810624163,0,0,4.1536075503991015
16,24,female,43,45,95,right,change,valid,clock,1,0.5454576945066947,0,f,0,same,0.9764223230195057,0.21487517779507792,0,0,0,0.38750031271865737,0,0,4.754804154951671
16,24,female,44,15,325,right,change,valid,anti,1,0.12952054350716935,0,j,1,change,0.5796007597609787,0.21578735108391717,0,0,0,0.38750287861239485,0,0,4.011670326271997
16,24,female,45,165,215,right,change,valid,clock,3,0.7694284664103179,1,j,1,change,0.6492676618490805,0.21678189450815494,0,0,0,0.38746503167931223,0,0,4.6333004257458015
16,24,female,46,15,15,left,same,valid,anti,3,1.5134404722275576,1,f,1,same,0.68944635068965,0.21643871214807026,0,0,0,0.38752949975969386,0,0,5.18305438860898
16,24,female,47,135,135,left,same,valid,clock,1,0.22545417923174682,0,j,0,change,0.6841141027289268,0.21610245995434985,0,0,0,0.3874621450486302,0,0,3.794633240768235
16,24,female,48,15,105,left,change,catch,anti,1,0.22542916176735162,0,j,1,change,0.8809184744995946,0,0,0,0,0.38749165282752074,0,0,5.7371941053716
16,24,female,49,15,165,right,change,catch,clock,1,0.0805639321297349,0,j,1,change,0.3813575630683772,0,0,0,0,0.3874942187203487,0,0,4.770150444765022
16,24,female,50,135,85,right,change,valid,anti,2,0.3922379148007167,1,j,1,change,0.8315939781032284,0.2170942133799567,0,0,0,0.3874865210391363,0,0,4.436768038714035
16,24,female,51,105,105,right,same,valid,clock,2,0.42539856348412286,1,j,0,change,0.7234861387214551,0.2167493484512127,0,0,0,0.3874169211712797,0,0,4.461047487637188
16,24,female,52,45,355,left,change,valid,anti,1,0.10551275858597364,0,j,1,change,0.4421686035957464,0.21641228809498292,0,0,0,0.38751987765863305,0,0,3.638228545439233
16,24,female,53,45,45,left,same,valid,clock,1,0.13741900595960033,0,j,0,change,0.30485223338655487,0.21740388543586475,0,0,0,0.3875548379610336,0,0,3.418406823737314
16,24,female,54,75,125,left,change,valid,clock,2,0.5854211690084412,1,j,1,change,0.7622927158772654,0.21844656318314754,0,0,0,0.3874361653743108,0,0,4.408972673872995
16,24,female,55,135,135,right,same,valid,clock,1,0.2811748072854243,0,j,0,change,0.6093298462837993,0.21807316875611726,0,0,0,0.3874605413657264,0,0,3.8804306339488903
16,24,female,56,45,45,right,same,valid,anti,3,0.609493422010928,1,f,1,same,0.5053906220427962,0.21915794361380525,0,0,0,0.3874807477777722,0,0,4.23446271146986
16,24,female,57,75,75,right,same,valid,anti,3,0.513517128303647,1,f,1,same,0.6376043917834977,0.21876433751086116,0,0,0,0.38751731176489557,0,0,4.053688760935984
16,24,female,58,165,165,right,same,valid,anti,1,0.06548417452995636,0,j,0,change,0.22995219098447706,0.21838505951533554,0,0,0,0.3875019164015612,0,0,3.3083732810919173
16,24,female,1,45,95,left,change,valid,clock,2,1.056283520996658,1,j,1,change,0.6788001367622201,0.2194847076644768,0,0,0,0.3875073689259807,0,0,4.4322212749793835
16,24,female,2,135,135,left,same,valid,clock,3,0.5534539816571851,1,f,1,same,0.639522076628964,0.21908346428883269,0,0,0,0.3875064067160565,0,0,4.348630550429334
16,24,female,3,105,105,right,same,valid,clock,3,1.8334616280208138,1,f,1,same,1.1282571615702182,0.21869753251655122,0,0,0,0.3874961431411066,0,0,6.042938949048221
16,24,female,4,75,25,left,change,valid,anti,2,0.3935343326211296,1,f,0,same,1.0508608252812337,0.21832547316338113,0,0,0,0.3874403349518616,0,0,4.628246897995268
16,24,female,5,105,55,right,change,valid,anti,1,0.1455108726540857,0,j,1,change,1.1303223853055897,0.21796594090416904,0,0,0,0.38751410439726897,0,0,4.393419508875013
16,24,female,6,45,45,left,same,valid,anti,3,0.38531834081641136,1,f,1,same,0.6074763087826796,0.2190113230649669,0,0,0,0.3874775404110551,0,0,4.032720277167755
16,24,female,7,135,185,left,change,valid,clock,1,0.5695046093078417,0,j,1,change,0.9204255406502853,0.21863280010369085,0,0,0,0.3873723387678183,0,0,4.558415778707058
16,24,female,8,45,25,right,change,catch,anti,1,0.09751743364449794,0,j,1,change,0.36196261364511884,0,0,0,0,0.38743263727064914,0,0,4.9724243398113686
16,24,female,9,75,125,right,change,valid,clock,2,0.3278772809999282,1,j,1,change,0.8718679257508484,0.2197286653868447,0,0,0,0.38742622253630543,0,0,4.1362319593608845
16,24,female,10,15,325,right,change,valid,anti,2,0.21745115660905867,1,j,1,change,0.8275433940743824,0.21932714008859,0,0,0,0.3874910113536316,0,0,4.233269570873745
16,24,female,11,165,215,right,change,valid,clock,3,0.2894863786323185,1,j,1,change,0.7172102833319514,0.21894141100718562,0,0,0,0.3874653524153473,0,0,4.17242453225299
16,24,female,12,15,325,left,change,valid,anti,3,0.4414180796729852,1,j,1,change,0.6201037134260332,0.2185700447945239,0,0,0,0.38745027778986696,0,0,4.213659727848608
16,24,female,13,75,75,right,same,valid,clock,3,0.4494076313530968,1,f,1,same,0.7713445475719709,0.21821170287395442,0,0,0,0.38745669252512016,0,0,4.216720839098343
16,24,female,14,135,135,right,same,valid,anti,3,0.3774333493056474,1,f,1,same,0.6786984632226449,0.21786513182539385,0,0,0,0.38753046197052754,0,0,4.323471641421747
16,24,female,15,45,45,left,same,valid,clock,4,1.2654667264523596,1,f,1,same,0.6795913942487459,0.21752915464108724,0,0,0,0.3875163495540619,0,0,4.937140414045643
16,24,female,16,165,215,left,change,valid,clock,1,0.08945058441440779,0,j,1,change,0.4652106502553579,0.2172026627537053,0,0,0,0.3874339202175179,0,0,3.405484341312331
16,24,female,17,45,105,left,same,catch,anti,1,0.4574594059577066,0,j,0,change,0.6979625520634727,0,0,0,0,0.38743199579676,0,0,5.7058600523059795
16,24,female,18,105,55,left,change,valid,anti,1,0.09541083487147262,0,j,1,change,1.0107122856916249,0.2181573572074884,0,0,0,0.3874974260879753,0,0,4.0534639244961
16,24,female,19,165,165,right,change,catch,clock,1,0.0814106770685612,0,j,1,change,0.5870575677508896,0,0,0,0,0.387500954191637,0,0,5.003764486875298
16,24,female,20,75,75,left,same,valid,clock,3,0.5684795347524414,1,f,1,same,0.4209736797038204,0.21917913093955294,0,0,0,0.3874095442270118,0,0,3.994617396375361
16,24,female,21,105,165,left,same,catch,anti,1,0.07352953439931298,0,j,0,change,0.33128639158985607,0,0,0,0,0.38748042704173713,0,0,4.692004867500145
16,24,female,22,75,125,left,change,valid,clock,2,0.2398921426556626,1,j,1,change,0.7271794220450829,0.21880787136474072,0,0,0,0.38751442513330403,0,0,4.110990300279809
16,24,female,23,105,105,left,same,valid,anti,1,0.1054572711336732,0,j,0,change,0.46949184398636135,0.21845011193805608,0,0,0,0.38752083986855723,0,0,3.854615176876905
16,24,female,24,45,355,right,change,valid,anti,2,0.11333007464872935,1,j,1,change,1.1739913311275814,0.21948721225489926,0,0,0,0.3875404048076234,0,0,4.4160019398150325
16,24,female,25,165,165,right,same,valid,anti,1,0.2814756583275084,0,f,1,same,1.0567902850134487,0.2191084416351522,0,0,0,0.38753623523098213,0,0,4.080028943280922
16,24,female,26,135,135,right,same,valid,clock,1,0.06544408244008082,0,j,0,change,0.9462570345576751,0.22019673162284542,0,0,0,0.38744963631597784,0,0,4.207505431676509
16,24,female,27,75,25,right,change,valid,anti,1,0.10551596595269075,0,j,1,change,1.149586474147327,0.22123785530670131,0,0,0,0.3874807477786817,0,0,4.497895004910788
16,24,female,28,165,15,right,same,catch,clock,1,0.05745902107355505,0,j,0,change,0.8378704749666213,0,0,0,0,0.38745605105123104,0,0,5.362699987363158
16,24,female,29,75,75,right,change,catch,anti,1,0.07936565974614496,0,f,0,same,0.7557926655208576,0,0,0,0,0.3874499570529224,0,0,5.487783779830352
16,24,female,30,135,185,right,change,valid,clock,1,0.11245831224459835,0,f,0,same,0.7727596379781971,0.22218701015890363,0,0,0,0.387484917355323,0,0,3.9664284875789235
16,24,female,31,105,155,right,change,valid,clock,1,0.08151106766217708,0,j,1,change,0.64905533414003,0.2230676626235618,0,0,0,0.3874983882978995,0,0,3.8675886564396933
16,24,female,32,75,75,left,same,valid,anti,1,0.04951084442927822,0,f,1,same,0.8741493260358766,0.2239001976199198,0,0,0,0.38740409170259227,0,0,4.069360919257633
16,24,female,33,15,45,left,change,catch,anti,1,0.0895288441743105,0,f,0,same,0.7241369135244895,0,0,0,0,0.3874457874753716,0,0,5.5496529307956735
16,24,female,34,15,15,left,same,valid,clock,1,0.0883562307271859,0,f,1,same,0.7436207070186356,0.22470281875514003,0,0,0,0.38744482526544743,0,0,3.6329492190379824
16,24,female,35,15,15,right,same,valid,anti,1,0.09747285124012706,0,f,1,same,0.7077831896758653,0.2254922972889712,0,0,0,0.3874602206287818,0,0,4.044446090892961
16,24,female,36,45,155,left,change,catch,anti,1,0.2334174305005945,0,f,0,same,0.7870106118953117,0,0,0,0,0.3874602206287818,0,0,5.706014326667173
16,24,female,37,75,75,right,same,valid,anti,1,0.32763352109213884,0,f,1,same,1.2164979270792173,0.22634818346844826,0,0,0,0.3874015258079453,0,0,4.532891871313041
16,24,female,38,105,155,left,change,valid,clock,1,0.7934401001721199,0,f,0,same,0.9351306777616628,0.2272273944459423,0,0,0,0.3874499570529224,0,0,4.663161014323123
16,24,female,39,165,165,left,same,valid,anti,2,0.5694192933406157,1,f,1,same,0.7567228020070615,0.22815035902259995,0,0,0,0.38749902977178863,0,0,4.325577277983939
16,24,female,40,135,135,left,same,valid,anti,3,0.7214693462301511,1,f,1,same,0.7217679521145328,0.22782103291998024,0,0,0,0.3875201983946681,0,0,4.43518392005717
16,24,female,41,15,15,right,same,valid,clock,1,0.22540959682737594,0,f,1,same,0.5878584473384763,0.2275016561933515,0,0,0,0.3874117893838047,0,0,3.8517173206164443
16,24,female,42,135,85,left,change,valid,anti,1,1.3614491141570397,0,f,0,same,1.1726108802877206,0.22843349121148282,0,0,0,0.38743007137691166,0,0,5.509197766902616
16,24,female,43,105,105,left,same,valid,clock,1,0.07355551407363237,0,f,1,same,0.6562331011837159,0.22943724307089036,0,0,0,0.3874942187203487,0,0,3.9684128856615644
16,24,female,44,135,85,right,change,valid,anti,2,0.10549415585683164,1,j,1,change,1.0748134434870735,0.230506900734245,0,0,0,0.38753110344350716,0,0,4.349923440145176
16,24,female,45,105,105,right,same,valid,anti,3,0.2014287537904238,1,f,1,same,0.9384047581934283,0.2301267786827476,0,0,0,0.38743167505981546,0,0,4.036081918724449
16,24,female,46,165,115,right,change,valid,anti,3,0.5454387710396986,1,f,0,same,1.3297407613390533,0.22973887456140624,0,0,0,0.3874983882978995,0,0,4.977979499792127
16,24,female,47,165,165,left,same,valid,clock,4,0.8414713861147902,1,f,1,same,0.7441431871357054,0.22936433640341708,0,0,0,0.38743808979415917,0,0,4.6327715308952975
16,24,female,48,165,115,left,change,valid,anti,2,0.44143443724442477,1,f,0,same,0.9327947522342583,0.22900447584614458,0,0,0,0.387484917355323,0,0,4.414171174620606
16,24,female,49,15,65,right,change,valid,clock,1,0.025490871512374724,0,j,1,change,1.033152309529214,0.2286580385637924,0,0,0,0.38745829620802397,0,0,4.381974981252824
16,24,female,50,15,165,right,change,catch,clock,1,0.09750813227947219,0,j,1,change,0.6895958140012226,0,0,0,0,0.3875115385035315,0,0,5.2225425312926745
16,24,female,51,45,355,left,change,valid,anti,1,0.14447200641916425,0,j,1,change,0.7136545960611329,0.22966116031187883,0,0,0,0.38745669252421067,0,0,3.833717255186457
16,24,female,52,15,15,left,same,valid,anti,1,0.09744462640901475,0,j,0,change,0.8787502942759602,0.23070546443887996,0,0,0,0.3875349522841134,0,0,4.138508869332327
16,24,female,53,165,165,right,same,valid,clock,1,0.11347729280259955,0,f,1,same,0.9154672717049834,0.23165740868551327,0,0,0,0.38751570808108227,0,0,4.395255726593859
16,24,female,54,45,45,right,same,valid,clock,3,0.4653524158857181,1,f,1,same,0.9696640796046267,0.23253191504027543,0,0,0,0.3875253301821431,0,0,4.858411737423921
16,24,female,55,15,105,left,change,catch,anti,1,0.19345748410250962,0,f,0,same,0.7501268513724426,0,0,0,0,0.3875112177665869,0,0,5.628055418173062
16,24,female,56,45,95,right,change,valid,clock,1,0.12023297032374103,0,j,1,change,0.7179726745143853,0.2322176802131341,0,0,0,0.3874961431411066,0,0,4.035805764408906
16,24,female,57,45,45,right,same,valid,anti,1,0.16113043015320727,0,f,1,same,0.7788270144992566,0.23305011350822913,0,0,0,0.3874377690581241,0,0,4.010421056750602
16,24,female,58,15,65,left,change,valid,clock,1,0.14543614099875413,0,j,1,change,0.9713655879013459,0.2338368375760324,0,0,0,0.38745188147368026,0,0,4.384140274845777
16,24,female,1,165,165,left,same,valid,anti,1,0.09573991074557853,0,f,1,same,1.4457932492623513,0.2345943034646925,0,0,0,0.38755066838348284,0,0,4.465003454334692
16,24,female,2,105,155,right,change,valid,clock,1,0.3214740931334745,0,f,0,same,0.5699334343007649,0.23533766580603716,0,0,0,0.38748491735623247,0,0,3.793587959799879
16,24,female,3,45,355,right,change,valid,anti,1,0.1291286032364951,0,j,1,change,1.4844410617415633,0.2361408676624283,0,0,0,0.38750929334673856,0,0,4.649839535419233
16,24,female,4,105,165,left,same,catch,anti,1,0.11346927438444254,0,j,0,change,0.532995148536429,0,0,0,0,0.3874457874762811,0,0,4.972861824697247
16,24,female,5,135,135,left,same,valid,anti,1,0.13622843125722284,0,f,1,same,0.6301222455931565,0.23696238960063154,0,0,0,0.38748587956524716,0,0,3.7578559648372902
16,24,female,6,105,105,left,same,valid,anti,1,0.169482093589977,0,f,1,same,0.6524952354557172,0.23782044480169395,0,0,0,0.38751731176489557,0,0,4.14858834147708
16,24,female,7,135,85,right,change,valid,anti,2,0.27347616380939144,1,j,1,change,0.832413139685741,0.23873432264875266,0,0,0,0.3874153174874664,0,0,4.174001273966496
16,24,female,8,165,215,right,change,valid,clock,3,0.46544093921875174,1,j,1,change,0.6808323246168584,0.23840423806983357,0,0,0,0.3875420084932557,0,0,4.495504554141007
16,24,female,9,45,105,left,same,catch,anti,1,0.2254779137474543,0,f,1,same,0.8388759845802269,0,0,0,0,0.38749229429959087,0,0,5.5342729636249715
16,24,female,10,105,55,right,change,valid,anti,1,0.08849992077739444,0,j,1,change,0.772987681786617,0.23808532723574755,0,0,0,0.38753110344441666,0,0,3.7180599149032787
16,24,female,11,75,75,right,same,valid,clock,1,0.07353274176603009,0,j,0,change,0.26760058784566354,0.23901208881363456,0,0,0,0.3874198078028712,0,0,3.7319805299975997
16,24,female,12,75,25,right,change,valid,anti,2,0.2013835299112543,1,f,0,same,2.372173908581317,0.24002160074435436,0,0,0,0.3874695219928981,0,0,5.64958871930321
16,24,female,13,15,15,left,same,valid,clock,2,0.1214601090123324,1,f,1,same,0.47814307551925594,0.2396496844574395,0,0,0,0.38738324381483835,0,0,3.465789580033743
16,24,female,14,105,55,left,change,valid,anti,1,0.09756522341558593,0,j,1,change,0.4082859765567264,0.23929257701384143,0,0,0,0.3874409764248412,0,0,3.6415420764878945
16,24,female,15,135,135,left,same,valid,clock,1,0.11349076374608558,0,j,0,change,1.113663320098567,0.2403101791470515,0,0,0,0.38749325651042454,0,0,4.397625008739851
16,24,female,16,45,45,right,same,valid,clock,1,0.09746547429676866,0,j,0,change,0.3505148786571226,0.24126796811620999,0,0,0,0.38753848038686556,0,0,3.381154215987408
16,24,female,17,45,95,left,change,valid,clock,2,0.20950426291165059,1,f,0,same,0.4384047581934283,0.24214201487489562,0,0,0,0.3874117893828952,0,0,3.738347474614784
16,24,female,18,15,165,right,change,catch,clock,1,0.14546532803979062,0,j,1,change,0.41163543011680304,0,0,0,0,0.3874781818849442,0,0,5.050724832912238
16,24,female,19,75,75,right,change,catch,anti,1,0.056514130697905784,0,j,1,change,0.5042305173283239,0,0,0,0,0.3875201983937586,0,0,5.113174517338848
16,24,female,20,105,155,left,change,valid,clock,1,0.1358162845717743,0,f,0,same,1.3532526872913877,0.24183040489497104,0,0,0,0.38740120507100073,0,0,4.562382650452491
16,24,female,21,15,15,right,same,valid,anti,2,0.2975320592377102,1,f,1,same,0.4586605649710691,0.24265854438107365,0,0,0,0.3874361653743108,0,0,3.637911657560835
16,24,female,22,165,115,left,change,valid,anti,1,0.16947215075197164,0,f,0,same,0.8839330789251107,0.24236016457325954,0,0,0,0.38745669252421067,0,0,4.2571955679304665
16,24,female,23,15,45,left,change,catch,anti,1,0.06549796620856796,0,j,1,change,0.6698361869275686,0,0,0,0,0.38742686401019455,0,0,5.3936905314039905
16,24,female,24,165,115,right,change,valid,anti,1,0.111805292282952,0,f,0,same,0.2821408662839531,0.24315000552126698,0,0,0,0.38745091926466557,0,0,3.310934043060115
16,24,female,25,135,185,right,change,valid,clock,1,0.04948935506763519,0,j,1,change,0.23682686182837642,0.24389819840463123,0,0,0,0.38744161789873033,0,0,3.4981759702768613
16,24,female,26,165,165,left,same,valid,clock,1,0.09749337838911742,0,f,1,same,0.4779641044297023,0.2446197637124084,0,0,0,0.38741307233067346,0,0,3.546618119957202
16,24,female,27,135,135,right,same,valid,clock,1,0.1534696336093475,0,f,1,same,0.6035860931133357,0.24532859692819897,0,0,0,0.3874621450486302,0,0,3.8443204903942387
16,24,female,28,45,95,right,change,valid,clock,1,0.06548609894889523,0,j,1,change,0.3152832329742523,0.2460947318521841,0,0,0,0.3874993505087332,0,0,3.693384035394047
16,24,female,29,135,85,left,change,valid,anti,2,0.15324094832976698,1,f,0,same,1.3941360347052978,0.2468780190333258,0,0,0,0.387533027864265,0,0,4.650612190176616
16,24,female,30,75,75,right,same,valid,anti,3,0.0655252288288466,1,j,0,change,0.2735646871424251,0.2466057654228639,0,0,0,0.3874233359056234,0,0,3.1205642913555494
16,24,female,31,75,75,left,same,valid,clock,2,0.14552402286062716,1,f,1,same,1.2978178356552235,0.2463392467217188,0,0,0,0.3874419386356749,0,0,4.511477242767796
16,24,female,32,75,25,left,change,valid,anti,1,0.08950158155312238,0,j,1,change,0.3965832558751572,0.24607774706369412,0,0,0,0.38744129716178577,0,0,3.273755204756526
16,24,female,33,15,15,left,same,valid,anti,2,0.12156210328794259,1,f,1,same,0.3917952981282724,0.24684968037366034,0,0,0,0.38747882335701433,0,0,3.580674586297391
16,24,female,34,15,15,right,same,valid,clock,1,0.0974821526051528,0,j,0,change,0.7972373021930252,0.2465814950945322,0,0,0,0.3874675975730497,0,0,4.09456569361646
16,24,female,35,15,65,left,change,valid,clock,2,0.5771391054404376,1,f,0,same,1.2216852020428632,0.24736972175622196,0,0,0,0.38743584463736624,0,0,4.99045487523108
16,24,female,36,45,45,left,same,valid,clock,3,0.17745368401301675,1,f,1,same,0.9863099946051079,0.2470924398066212,0,0,0,0.3874653524144378,0,0,4.3654634549366165
16,24,female,37,105,105,right,same,valid,anti,1,0.08955193721703836,0,j,0,change,0.5351569140239008,0.24682205904871102,0,0,0,0.38747946483272244,0,0,3.996321791300943
16,24,female,38,165,165,right,same,valid,anti,3,0.4014347194934089,1,f,1,same,0.7871187001692306,0.24761516779418324,0,0,0,0.3874547681043623,0,0,4.449396726304258
16,24,female,39,135,135,right,same,valid,anti,1,0.05750103758327896,0,j,0,change,0.28004805919044884,0.24733458710420808,0,0,0,0.38754393291310407,0,0,3.530158232253598
16,24,female,40,165,215,left,change,valid,clock,1,0.11358313592063496,0,j,1,change,1.0090303423348814,0.2481543253052178,0,0,0,0.38751089702964236,0,0,4.107069293884706
16,24,female,41,75,125,left,change,valid,clock,3,0.6418602473131614,1,f,0,same,1.000164858673088,0.2490346841203135,0,0,0,0.3874335994805733,0,0,4.563227791708414
16,24,female,42,75,125,right,change,valid,clock,2,0.2814839974817005,1,f,0,same,1.0416396445980354,0.2487146880853227,0,0,0,0.38746952199471707,0,0,4.542768637849804
16,24,female,43,45,45,left,same,valid,anti,1,0.08152582155162236,0,j,0,change,0.30790372253431997,0.2484060511620349,0,0,0,0.3875349522841134,0,0,3.3942691404445213
16,24,female,44,15,325,right,change,valid,anti,1,0.19337345108215231,0,f,0,same,1.8420881628262578,0.249301231340672,0,0,0,0.38750127492858155,0,0,5.175763722239935
16,24,female,45,165,165,right,change,catch,clock,1,0.08150978471348935,0,f,0,same,0.880668299858371,0,0,0,0,0.38749165282570175,0,0,5.2376562869849295
16,24,female,46,15,325,left,change,valid,anti,1,0.12814907329448033,0,f,0,same,0.8182516513134033,0.25027150305421814,0,0,0,0.3874169211703702,0,0,3.783711513999151
16,24,female,47,15,105,left,change,catch,anti,2,0.937449283506794,1,f,0,same,1.0146425934526633,0,0,0,0,0.3875015956655261,0,0,6.65794455231844
16,24,female,48,165,15,right,same,catch,clock,1,0.9196342831637594,0,j,0,change,0.297703653382996,0,0,0,0,0.38746086210085195,0,0,6.2678982315210305
16,24,female,49,15,65,right,change,valid,clock,1,0.11980350385601923,0,f,0,same,0.44066723501236993,0.25118758875798963,0,0,0,0.38744803263398353,0,0,3.895978667160307
16,24,female,50,75,75,left,same,valid,anti,1,0.20946096345505794,0,f,1,same,0.8070540909648116,0.252022576039643,0,0,0,0.38749646387623216,0,0,4.042105033577172
16,24,female,51,135,185,left,change,valid,clock,1,0.15346674697866547,0,j,1,change,0.8558615597685275,0.2527949096365242,0,0,0,0.3874085820170876,0,0,4.367729459860129
16,24,female,52,45,45,right,same,valid,anti,1,0.1453806535464537,0,f,1,same,0.6094347271919105,0.253520654187981,0,0,0,0.3874647109423677,0,0,3.8470862031263096
16,24,female,53,45,25,right,change,catch,anti,1,0.08945026367655373,0,j,1,change,0.6180554887359904,0,0,0,0,0.3875599697475991,0,0,5.424816747075965
16,24,female,54,165,165,right,same,valid,clock,1,0.0796661900512845,0,j,0,change,0.3243956839105522,0.25421411518878756,0,0,0,0.38745765473504434,0,0,3.522148153420858
16,24,female,55,45,155,left,change,catch,anti,1,0.1453328637744562,0,f,0,same,0.2659516803723818,0,0,0,0,0.38745669252421067,0,0,4.972339665317122
16,24,female,56,105,105,left,same,valid,clock,1,0.07248585711386113,0,f,1,same,0.7975423228126601,0.2548883568739789,0,0,0,0.38744642894926073,0,0,3.855994665505932
16,24,female,57,45,355,left,change,valid,anti,1,0.0894926009241317,0,j,1,change,0.7612548118540872,0.25555564700091155,0,0,0,0.3874198078028712,0,0,4.113755050801046
16,24,female,58,105,105,right,same,valid,clock,2,0.3534335828026087,1,f,1,same,0.7209625822142698,0.25628184766124096,0,0,0,0.38749389798431366,0,0,4.3704746454423
16,24,female,1,45,95,right,change,valid,clock,1,0.27218936809003935,0,f,0,same,0.753950353804612,0.25603300833541354,0,0,0,0.3874675975730497,0,0,3.953391502143859
16,24,female,2,15,45,left,change,catch,anti,1,0.2973992742372502,0,j,1,change,1.4748824660291575,0,0,0,0,0.38751410439726897,0,0,6.501094353687222
16,24,female,3,15,15,right,same,valid,anti,3,1.0323812584556435,1,f,1,same,0.739452733349026,0.25676790944867656,0,0,0,0.38750287861148536,0,0,5.204922538874598
16,24,female,4,165,15,right,same,catch,clock,1,0.2814759790635435,0,f,1,same,0.632444700178894,0,0,0,0,0.38749325651042454,0,0,5.690448011464468
16,24,female,5,45,45,left,same,valid,clock,1,0.14423017093213275,0,f,1,same,0.569729125010781,0.2565128666577529,0,0,0,0.38745861694405903,0,0,3.825469510446055
16,24,female,6,135,135,left,same,valid,clock,3,0.6334579074755311,1,f,1,same,0.7535757333153015,0.2572629206914503,0,0,0,0.38752789607679006,0,0,4.393679947090277
16,24,female,7,165,115,right,change,valid,anti,1,0.18549455356878752,0,f,0,same,0.5984863792746182,0.2569994561957757,0,0,0,0.38746567315320135,0,0,3.688765426633836
16,24,female,8,75,75,left,same,valid,anti,3,0.46549578519989154,1,f,1,same,0.6327878884676466,0.2577711768158045,0,0,0,0.3875227642893151,0,0,4.350504294343409
16,24,female,9,45,105,left,same,catch,anti,1,0.01753756308062293,0,j,0,change,0.2241070850086544,0,0,0,0,0.38746567315320135,0,0,4.832281316892477
16,24,female,10,165,165,right,same,valid,anti,3,0.27971321005497884,1,f,1,same,0.5487843757600785,0.257497003096602,0,0,0,0.3874467496862053,0,0,4.079225177063563
16,24,female,11,15,325,left,change,valid,anti,2,0.33715555281924026,1,j,1,change,1.1703987591336045,0.2572304659747322,0,0,0,0.38748170998951537,0,0,4.60647721389978
16,24,female,12,135,135,right,same,valid,anti,4,0.20138898243749281,1,f,1,same,1.6291289239743492,0.2569708367088247,0,0,0,0.38748748324906046,0,0,4.851276307626904
16,24,female,13,105,165,left,same,catch,anti,1,0.05747505790895957,0,j,0,change,0.6259513852928649,0,0,0,0,0.38746342799458944,0,0,4.940807717694042
16,24,female,14,165,215,left,change,valid,clock,1,0.024317616591361002,0,j,1,change,0.26153417353452824,0.2567174220986711,0,0,0,0.3874711256758019,0,0,3.451563302844079
16,24,female,15,45,355,left,change,valid,anti,2,0.16945354802192014,1,j,1,change,0.8615828613692429,0.2574614204774689,0,0,0,0.3875189154477994,0,0,4.066578848953213
16,24,female,16,15,15,right,same,valid,clock,2,0.5854814675112721,1,f,1,same,0.49655432542203926,0.2571987881129374,0,0,0,0.38745027779077645,0,0,4.4255958165667835
16,24,female,17,105,105,right,same,valid,clock,3,0.2494539457366045,1,f,1,same,0.7022771024130634,0.25694289815260607,0,0,0,0.3875445743851742,0,0,4.001561987823152
16,24,female,18,45,45,right,same,valid,clock,1,0.19348538819576788,0,j,0,change,0.46935841751110274,0.2566930753040419,0,0,0,0.387413393067618,0,0,3.7746375514707324
16,24,female,19,15,65,right,change,valid,clock,1,0.21745853355241707,0,f,0,same,0.7759888152704661,0.2574266850174307,0,0,0,0.38744322158163413,0,0,4.038395071944251
16,24,female,20,165,165,right,same,valid,clock,3,0.5934039852181741,1,f,1,same,0.4824258729331632,0.25820359601887377,0,0,0,0.38744963631688734,0,0,4.420911456780232
16,24,female,21,135,135,right,same,valid,clock,1,0.11347568911878625,0,f,1,same,0.47998634944451624,0.25792501029256965,0,0,0,0.38743103358683584,0,0,3.3883287756634672
16,24,female,22,15,325,right,change,valid,anti,1,0.17744502412097063,0,f,0,same,0.853655853348755,0.2587355447210261,0,0,0,0.38747721967411053,0,0,4.2661758753383765
16,24,female,23,105,105,right,same,valid,anti,1,0.11345227533820434,0,f,1,same,0.6680775874956453,0.2596164562746877,0,0,0,0.38745123999979114,0,0,3.96621391471308
16,24,female,24,15,65,left,change,valid,clock,2,0.33737397452387086,1,j,1,change,0.8569892700743367,0.26054596071939357,0,0,0,0.38746503167931223,0,0,4.442785701043249
16,24,female,25,45,155,left,change,catch,anti,1,0.08155725374854228,0,j,1,change,0.6379135819806834,0,0,0,0,0.3874611828377965,0,0,5.300331770062257
16,24,female,26,75,125,right,change,valid,clock,1,0.19154845914817997,0,j,1,change,0.8613195365232968,0.2602187575430454,0,0,0,0.38755964901247353,0,0,4.265874062084549
16,24,female,27,15,165,right,change,catch,clock,1,0.15343884288449772,0,f,0,same,0.877858966932763,0,0,0,0,0.38748267219853005,0,0,5.737121298137936
16,24,female,28,165,165,right,change,catch,clock,1,0.02435033173787815,0,j,1,change,0.30963954965955054,0,0,0,0,0.3875307827056531,0,0,4.645187570042253
16,24,female,29,75,25,right,change,valid,anti,1,0.1684778669205116,0,f,0,same,0.5646521834787563,0.26109764718637724,0,0,0,0.3874605413639074,0,0,4.012903879696751
16,24,female,30,75,75,right,same,valid,anti,3,0.46543292080059473,1,f,1,same,0.6588323515588854,0.26189764161378204,0,0,0,0.3875080104007793,0,0,4.322384985416647
16,24,female,31,135,135,left,same,valid,anti,4,0.4654656359471119,1,f,1,same,0.9277848446781718,0.2616138281521637,0,0,0,0.38746310725946387,0,0,4.4558416099444
16,24,female,32,75,75,right,change,catch,anti,1,0.19346967209821742,0,f,0,same,0.9647603359007917,0,0,0,0,0.38751506660628365,0,0,5.877586982194771
16,24,female,33,45,95,left,change,valid,clock,1,0.14417532495463092,0,j,1,change,0.7603724651362427,0.2613230544486571,0,0,0,0.38748908693196427,0,0,3.845864516961228
16,24,female,34,15,15,left,same,valid,anti,3,0.40935787867420004,1,f,1,same,0.6028718124380248,0.2620993125541756,0,0,0,0.38748684177517134,0,0,4.3830783155663084
16,24,female,35,15,105,left,change,catch,anti,1,0.5295097026064468,0,j,1,change,0.5778832146279456,0,0,0,0,0.3874669560991606,0,0,5.565555698818571
16,24,female,36,45,355,right,change,valid,anti,2,0.391166012683243,1,j,1,change,0.036068768518816796,0.2618228889176616,0,0,0,0.38745669252421067,0,0,3.587764792217058
16,24,female,37,105,155,left,change,valid,clock,3,0.1375049634007155,1,f,0,same,0.5133448926844721,0.26154007308705673,0,0,0,0.38748684177699033,0,0,3.286496150198218
16,24,female,38,105,105,left,same,valid,clock,1,0.11339742935888353,0,f,1,same,0.47970794997308985,0.26125014751151965,0,0,0,0.38754906470057904,0,0,3.6330322898484155
16,24,female,39,165,165,left,same,valid,anti,3,0.7294739725366526,1,f,1,same,0.5307031639385968,0.2620245724349796,0,0,0,0.38752308502444066,0,0,4.49279112149452
16,24,female,40,135,85,right,change,valid,anti,2,0.4974562370789499,1,j,1,change,0.6434045946170954,0.2617492111110385,0,0,0,0.38747946483090345,0,0,4.079148841723509
16,24,female,41,75,25,left,change,valid,anti,1,0.09752384837884165,0,f,0,same,0.33435969083620876,0.26146730608734414,0,0,0,0.3874589376810036,0,0,3.4623532068217173
16,24,female,42,15,15,left,same,valid,clock,1,0.08954039069612918,0,j,0,change,0.29264595605491195,0.26221932191623953,0,0,0,0.387450598527721,0,0,3.317854899991289
16,24,female,43,105,105,left,same,valid,anti,2,0.28146411180750874,1,f,1,same,0.293789061723146,0.2629172946252837,0,0,0,0.3874291091669875,0,0,3.6095376836765354
16,24,female,44,45,25,right,change,catch,anti,1,0.08152614228856692,0,j,1,change,0.614957492764006,0,0,0,0,0.3874749745173176,0,0,5.30050657157517
16,24,female,45,75,75,left,same,valid,clock,2,0.24029081839762512,1,f,1,same,0.47800163062674983,0.2626645376828023,0,0,0,0.3876520211870229,0,0,3.9311808050624677
16,24,female,46,45,45,left,same,valid,anti,3,0.17749890789127676,1,f,1,same,0.57087736246649,0.2624075514447192,0,0,0,0.38750223713941523,0,0,3.6785627915887744
16,24,female,47,135,85,left,change,valid,anti,1,0.09756522341558593,0,j,1,change,0.3894580896539992,0.26214570875651566,0,0,0,0.38750448229438916,0,0,3.580070639054611
16,24,female,48,165,215,right,change,valid,clock,1,0.28148046937894833,0,j,1,change,0.7173530111722357,0.26284097896331493,0,0,0,0.3874611828377965,0,0,4.102450685126314
16,24,female,49,45,45,right,same,valid,anti,1,0.12153580287849763,0,f,1,same,0.5025880245884764,0.2634946124952252,0,0,0,0.3874239773795125,0,0,3.726122915291853
16,24,female,50,75,75,right,same,valid,clock,1,0.0974231370491907,0,j,0,change,1.437323875448783,0.26411852851805606,0,0,0,0.3874829929354746,0,0,4.772635192131929
16,24,female,51,105,55,left,change,valid,anti,1,0.057505848633809364,0,j,1,change,0.39573939756701293,0.2647236320568468,0,0,0,0.38747176715151,0,0,3.3250214412491914
16,24,female,52,165,115,left,change,valid,anti,2,0.23351557593741745,1,f,0,same,0.45746325479922234,0.2653201509969818,0,0,0,0.387463748733353,0,0,3.8257908886389487
16,24,female,53,135,185,right,change,valid,clock,1,0.10546496881579515,0,j,1,change,0.7009880615369184,0.26510506027017466,0,0,0,0.38742686400837556,0,0,3.729533629566504
16,24,female,54,105,155,right,change,valid,clock,3,0.2815179955759959,1,f,0,same,1.0461302794064977,0.2657460838776034,0,0,0,0.3874977468258294,0,0,4.544815900329922
16,24,female,55,165,165,left,same,valid,clock,1,0.06550438094200217,0,j,0,change,0.261934132224269,0.26552931085370574,0,0,0,0.38747529525426216,0,0,3.2278516862097604
16,24,female,56,105,55,right,change,valid,anti,1,0.09753186679517967,0,j,1,change,0.35689721863673185,0.2661726726115493,0,0,0,0.3875487439618155,0,0,3.6219094611569744
16,24,female,57,75,125,left,change,valid,clock,2,0.20935351665320923,1,j,1,change,0.8553175902925432,0.26683373259855825,0,0,0,0.38741884559203754,0,0,4.209324008876138
16,24,female,58,135,185,left,change,valid,clock,2,0.481489321711706,1,j,1,change,0.604140326162451,0.2666034334557745,0,0,0,0.38752148134153686,0,0,4.204002024489455
