subject,age,gender,ntrial,memory_ori,test_ori,cue,type,trial_type,which_change,pas,pas_rt,vis,test_key,test_acc,test,test_rt,contrast,fix_dur,cue_dur,jitter_dur,target_dur,mask_dur,retention_dur,trial_dur
17,23,female,1,75,75,left,same,valid,anti,2,1.360401975494824,1,j,1,same,2.7000518313861903,0.5,0,0,0,0.3873918228291586,0,0,7.104554426484356
17,23,female,2,105,105,right,same,valid,anti,1,1.5214654426417837,0,j,1,same,1.154498906601475,0.4069419370673367,0,0,0,0.3874999117970219,0,0,5.7063479335765805
17,23,female,3,105,165,left,change,catch,clock,1,1.7373672221647212,0,j,0,same,1.614466537644148,0,0,0,0,0.38738669100894185,0,0,8.389291879342636
17,23,female,4,75,25,left,change,valid,anti,2,1.3924277423648164,1,f,1,change,1.7097926680398814,0.5274438292530478,0,0,0,0.3874120293721717,0,0,6.305082554953515
17,23,female,5,105,155,left,change,valid,clock,2,1.1534180169237516,1,f,1,change,1.4666922402384444,0.4915951091070282,0,0,0,0.38736359781705687,0,0,5.784373735086774
17,23,female,6,15,15,right,same,valid,clock,1,2.337474284769087,0,j,1,same,1.23211993577479,0.4641700946387284,0,0,0,0.3874684793963752,0,0,7.091985956772987
17,23,female,7,105,135,right,same,catch,anti,2,1.7293189240363063,1,f,0,change,2.2938804324330704,0,0,0,0,0.3874200478412604,0,0,8.27946322441312
17,23,female,8,165,215,right,change,valid,clock,2,2.8721275436992073,1,f,1,change,1.4283543342398843,0.5165266758070325,0,0,0,0.3874408958618005,0,0,7.531210128161547
17,23,female,9,135,85,left,change,valid,anti,2,2.137493336652369,1,j,0,same,1.1424991067424344,0.49880005300621544,0,0,0,0.38738059697152494,0,0,6.490913791189996
17,23,female,10,45,45,right,same,valid,anti,2,2.8575198168455245,1,j,1,same,1.0196651358874078,0.48374446276561067,0,0,0,0.38739791686566605,0,0,6.863767166741127
17,23,female,11,45,45,left,same,valid,anti,2,1.001363460540233,1,j,1,same,0.898401502084198,0.47026765081156324,0,0,0,0.38745083876347053,0,0,4.990733215258842
17,23,female,12,135,325,right,change,catch,clock,1,0.86547574220549,0,j,0,same,0.40840277862480434,0,0,0,0,0.3874521217185247,0,0,5.971221392506777
17,23,female,13,45,355,right,same,catch,anti,1,0.9605565074371043,0,j,1,same,0.3098962025169385,0,0,0,0,0.387450518024707,0,0,6.127487569768164
17,23,female,14,135,185,right,change,valid,clock,1,1.8403141058988695,0,f,1,change,2.0451580953504163,0.45854978087431864,0,0,0,0.3875329478905769,0,0,7.177069294329158
17,23,female,15,105,55,right,change,valid,anti,2,2.4494435502965644,1,j,0,same,0.8197541088238722,0.48624973715283576,0,0,0,0.387533589368104,0,0,6.231518229829817
17,23,female,16,105,155,right,change,valid,clock,2,1.1614233360551225,1,f,1,change,1.3500555840300876,0.4770668033555835,0,0,0,0.38751081691498257,0,0,5.709084797559626
17,23,female,17,105,105,left,same,valid,anti,2,1.0094281163464984,1,f,0,change,1.537511682910008,0.4686590277153932,0,0,0,0.38744249955561827,0,0,5.846303261079811
17,23,female,18,15,95,right,same,catch,anti,2,2.1614348826515197,1,j,1,same,1.177863443541355,0,0,0,0,0.3874851578138987,0,0,8.263702762395042
17,23,female,19,135,135,left,same,valid,anti,2,1.0964804692530379,1,j,1,same,1.3097034385118604,0.4608507475104245,0,0,0,0.3874428202943818,0,0,5.956951724323517
17,23,female,20,135,85,right,change,valid,anti,2,0.937505332281944,1,f,1,change,1.0528327328038358,0.45348447553252097,0,0,0,0.3875011947520761,0,0,5.613326632031203
17,23,female,21,45,125,left,change,catch,anti,2,0.9053663446229621,1,f,1,change,2.615706513754958,0,0,0,0,0.3875037606621845,0,0,8.232579554442964
17,23,female,22,135,25,left,change,catch,anti,1,1.112356717970215,0,f,1,change,0.8930583147994184,0,0,0,0,0.38741844414744264,0,0,7.047925108779054
17,23,female,23,15,15,right,same,valid,anti,1,1.1843571208182766,0,j,1,same,0.6127047195432169,0.4464523909005257,0,0,0,0.38753070271923207,0,0,5.016972854594314
17,23,female,24,105,105,left,same,valid,clock,1,1.0495403492586775,0,j,1,same,0.38555944219660887,0.4640855380031905,0,0,0,0.38742774557158555,0,0,4.3998044134941665
17,23,female,25,75,125,right,change,valid,clock,2,0.8413023020702894,1,f,1,change,1.0636711375509549,0.47957655112213615,0,0,0,0.38740914272239024,0,0,5.06386005269087
17,23,female,26,45,45,left,same,valid,clock,2,1.0173083473546285,1,j,1,same,1.2976969031387853,0.47397508202521754,0,0,0,0.3874896481565884,0,0,5.655481008736388
17,23,female,27,15,15,left,same,valid,clock,2,1.0574606726149796,1,j,1,same,1.190783442951215,0.46851051350529205,0,0,0,0.38745757427841454,0,0,5.886975503896792
17,23,female,28,105,55,left,change,valid,anti,1,0.7375000080182872,0,j,0,same,0.3213969328398889,0.4635601597110345,0,0,0,0.38754706039708253,0,0,4.597377575612882
17,23,female,29,165,215,left,change,valid,clock,1,0.881504021102046,0,j,0,same,0.4848944865643716,0.47610778780073065,0,0,0,0.38752589163777884,0,0,4.233682575096282
17,23,female,30,135,105,left,same,catch,anti,2,1.889450965776632,1,f,0,change,1.5602850982832024,0,0,0,0,0.3874713660452471,0,0,7.79672089504129
17,23,female,31,105,105,right,same,valid,clock,2,1.24756799822444,1,j,1,same,1.1584010145606953,0.4888147476594637,0,0,0,0.38750472287847515,0,0,5.691554498970618
17,23,female,32,15,65,right,change,valid,clock,2,0.6175494787676143,1,j,0,same,1.070672544311492,0.48446375962031024,0,0,0,0.3875011947520761,0,0,5.116056760500214
17,23,female,33,165,165,left,same,valid,anti,2,0.4894053567222727,1,j,1,same,1.1439000937198216,0.4801371822427276,0,0,0,0.3874877237230976,0,0,4.822295963630495
17,23,female,34,75,75,right,same,valid,anti,2,0.33743739980945975,1,j,1,same,0.9391953048971118,0.4761300004912782,0,0,0,0.38743704699663795,0,0,4.464540403784667
17,23,female,35,45,95,right,change,valid,clock,2,0.5694694531593996,1,f,1,change,0.9209019687586988,0.4724189934313052,0,0,0,0.3874181234086791,0,0,4.753823366590041
17,23,female,36,45,355,right,change,valid,anti,2,0.8895250564337402,1,f,1,change,1.0777278351861241,0.4686515443613628,0,0,0,0.38750793026611063,0,0,5.026233224560201
17,23,female,37,15,325,right,change,valid,anti,2,1.5373792177952055,1,j,0,same,1.29172282268064,0.46516420324356034,0,0,0,0.387533589368104,0,0,6.233662047814505
17,23,female,38,75,105,right,same,catch,anti,1,0.5214529338300053,0,j,1,same,0.8910238687376477,0,0,0,0,0.3874453862044902,0,0,6.0960468304265305
17,23,female,39,135,135,left,same,valid,clock,2,0.5524549025249144,1,j,1,same,0.9735829921201002,0.4618819687965014,0,0,0,0.3874312736988941,0,0,4.795099881262104
17,23,female,40,135,135,right,same,valid,clock,2,0.9533950520271901,1,j,1,same,1.8499840592821784,0.4585144999834688,0,0,0,0.3875274953315966,0,0,5.988484194955163
17,23,female,41,15,325,left,change,valid,anti,2,0.649371576514568,1,f,1,change,1.9569385740342113,0.45537786353429627,0,0,0,0.38747425269502855,0,0,5.708876317354225
17,23,female,42,135,135,right,same,valid,anti,2,0.4493928735691952,1,j,1,same,0.8888085260059597,0.4524104925012402,0,0,0,0.3874354433028202,0,0,4.230297177306056
17,23,female,43,45,45,right,same,valid,clock,2,0.337422645825427,1,j,1,same,0.7177386504981769,0.44933780700490467,0,0,0,0.38753006124170497,0,0,4.209438572430372
17,23,female,44,75,25,right,change,valid,anti,2,0.2733711120845328,1,j,0,same,0.780831175295134,0.44644029097819343,0,0,0,0.3874611024048136,0,0,4.028155732788036
17,23,female,45,165,165,right,same,valid,anti,2,0.34545715218609985,1,j,1,same,1.4470992705755634,0.443706096625183,0,0,0,0.38751787316778064,0,0,5.018071064166179
17,23,female,46,15,15,left,same,valid,anti,2,0.313464742148426,1,j,1,same,0.7339439771994876,0.44088442310056486,0,0,0,0.3874851578138987,0,0,3.8971413194294655
17,23,female,47,165,115,left,change,valid,anti,2,0.6655345656972713,1,f,1,change,1.0529337655179916,0.4381425653651356,0,0,0,0.3875242879439611,0,0,4.7080824888817006
17,23,female,48,165,165,right,same,valid,clock,1,0.793403493871665,0,j,1,same,1.2894914430098652,0.4355655499174124,0,0,0,0.3874412166005641,0,0,5.291315805172417
17,23,female,49,75,125,left,change,valid,clock,2,0.5933468514031119,1,f,1,change,2.571639250985754,0.4428301335016753,0,0,0,0.387563418074933,0,0,6.3215303601700725
17,23,female,50,75,75,left,same,valid,clock,2,0.7053966223647876,1,j,1,same,1.285037022877077,0.44029771980809246,0,0,0,0.38752717459283303,0,0,4.7624480322992895
17,23,female,51,75,85,left,change,catch,clock,1,0.6256003428061376,0,j,0,same,0.014529466591739038,0,0,0,0,0.38743640551911085,0,0,5.2695520754687095
17,23,female,52,45,355,left,change,valid,anti,2,0.5684402024253359,1,f,1,change,1.4129794002310518,0.43784534959157984,0,0,0,0.3875031191846574,0,0,5.273038826711854
17,23,female,53,15,65,left,change,valid,clock,2,0.6147442974242949,1,j,0,same,0.9970928237262342,0.4355348513051889,0,0,0,0.3874242174451865,0,0,4.750953075274992
17,23,female,54,45,95,left,change,valid,clock,2,0.3453506669120543,1,j,0,same,1.093197707872605,0.4333196623329967,0,0,0,0.38749734588691354,0,0,4.543180740791286
17,23,female,55,135,185,left,change,valid,clock,2,0.5533770265074054,1,f,1,change,2.1722925317262707,0.4310057935767716,0,0,0,0.3874267833562044,0,0,5.634633950456191
17,23,female,56,165,115,right,change,valid,anti,2,0.3534313596564971,1,f,1,change,1.8280747141743632,0.4287253300230187,0,0,0,0.38748612002927985,0,0,5.113673029910387
17,23,female,57,165,165,left,same,valid,clock,2,0.36133147646978614,1,j,1,same,1.3760049547727249,0.42656459899708954,0,0,0,0.3874745734337921,0,0,4.635141679939807
17,23,female,58,75,75,right,same,valid,clock,3,1.0094326066882786,1,j,1,same,0.8643028004980806,0.42450119384540913,0,0,0,0.3875486640909003,0,0,4.9208904221623015
17,23,female,1,165,165,right,same,valid,anti,3,2.0882945741905132,1,j,1,same,1.0610802097116903,0.42235918184160887,0,0,0,0.3875788135364928,0,0,6.17727328419187
17,23,female,2,45,125,left,change,catch,anti,1,1.3454337382554513,0,j,0,same,0.44142379791901476,0,0,0,0,0.3874957421930958,0,0,6.4081150759411685
17,23,female,3,75,125,left,change,valid,clock,2,1.0002806464299283,1,f,1,change,0.8925893947080112,0.4202413301881782,0,0,0,0.3874399336455099,0,0,5.046529253621884
17,23,female,4,75,25,left,change,valid,anti,2,1.2335077724628718,1,f,1,change,0.33426689699990675,0.41816279381308297,0,0,0,0.38743961290674633,0,0,4.566772360784853
17,23,female,5,45,95,left,change,valid,clock,2,0.5294043688472811,1,f,1,change,1.5101889087245581,0.4161925008962446,0,0,0,0.38750151549083967,0,0,5.042279785567189
17,23,female,6,105,105,left,same,valid,anti,1,0.5294614603490118,0,j,1,same,0.28296729554949707,0.4142986715925637,0,0,0,0.3875188353849808,0,0,3.7061991107839276
17,23,female,7,75,25,right,change,valid,anti,2,1.4413910825642233,1,f,1,change,2.249911957205768,0.4194396060499802,0,0,0,0.38750215696836676,0,0,6.575787686324475
17,23,female,8,15,65,right,change,valid,clock,3,2.3212994282512227,1,f,1,change,2.7180436730750444,0.4175476306617672,0,0,0,0.387490610372879,0,0,8.231200056963644
17,23,female,9,165,215,left,change,valid,clock,1,0.4655443161555013,0,j,0,same,0.18362198754130077,0.4157448597126084,0,0,0,0.3875274953315966,0,0,3.920595663226777
17,23,female,10,15,65,left,change,valid,clock,2,0.4974921435032229,1,j,0,same,1.303482389196688,0.4209497094054415,0,0,0,0.38749734588600404,0,0,4.572027344905109
17,23,female,11,75,75,right,same,valid,clock,2,1.5374959667096846,1,j,1,same,0.4684024193966252,0.41912448880526776,0,0,0,0.3875063265722929,0,0,5.007818328424946
17,23,female,12,105,135,right,same,catch,anti,1,0.4014982349744969,0,j,1,same,0.2710271531032049,0,0,0,0,0.3875149865189087,0,0,5.191329661088275
17,23,female,13,165,115,left,change,valid,anti,2,1.1762972760934645,1,f,1,change,2.2890497857151786,0.41738035785474065,0,0,0,0.3874825919028808,0,0,6.801954710401333
17,23,female,14,75,85,left,change,catch,clock,2,0.6335113647373873,1,j,0,same,1.0238122882719836,0,0,0,0,0.3874299907438399,0,0,6.4080753043326695
17,23,female,15,135,135,right,same,valid,clock,2,0.3124412647111967,1,j,1,same,1.43794249923576,0.4157135696654589,0,0,0,0.38755315443358995,0,0,5.202562253793076
17,23,female,16,165,215,right,change,valid,clock,2,0.4333572176810776,1,f,1,change,1.6807876189704984,0.41410000602395214,0,0,0,0.38746014018852293,0,0,5.150355603082062
17,23,female,17,105,155,right,change,valid,clock,2,0.8333989778693649,1,j,0,same,2.6522530936863404,0.41240724652865984,0,0,0,0.38746623422503035,0,0,6.28134531955493
17,23,female,18,45,45,left,same,valid,anti,2,0.24154901433757914,1,j,1,same,1.039856283368863,0.4107227639463914,0,0,0,0.3875188353849808,0,0,4.1683612365377485
17,23,female,19,15,325,right,change,valid,anti,2,0.3454568314473363,1,j,0,same,1.1873723860589962,0.4090368634251874,0,0,0,0.38753775897203013,0,0,4.714749685836068
17,23,female,20,165,165,left,same,valid,anti,2,0.2574364889114804,1,j,1,same,1.192729685849372,0.4074238915423772,0,0,0,0.3874883652006247,0,0,4.618365438215733
17,23,female,21,75,75,right,same,valid,anti,1,0.41750694880556694,0,j,1,same,0.3438111207833572,0.40587851828487465,0,0,0,0.38750215696836676,0,0,3.6794174229153214
17,23,female,22,135,105,left,same,catch,anti,1,1.7694638723050957,0,j,1,same,1.1543709318293622,0,0,0,0,0.38743191517642117,0,0,7.219454282215338
17,23,female,23,165,165,left,same,valid,clock,1,0.3440879183472134,0,j,1,same,1.3464937799135441,0.4103698694400928,0,0,0,0.3874219722738417,0,0,4.708102374685041
17,23,female,24,45,355,right,change,valid,anti,1,0.46536887204547384,0,j,0,same,1.8848704953043125,0.4145398891706634,0,0,0,0.38747232826244726,0,0,5.163333014733325
17,23,female,25,135,185,left,change,valid,clock,1,0.47352333470826125,0,j,0,same,0.2488727635691248,0.41844431181581776,0,0,0,0.38749285554422386,0,0,3.422618883430914
17,23,female,26,105,105,right,same,valid,clock,2,0.865486326584687,1,j,1,same,1.3466304146313632,0.4225676976783628,0,0,0,0.38745180098067067,0,0,5.189122336825676
17,23,female,27,135,85,right,change,valid,anti,2,0.7294584454048163,1,f,1,change,0.955414102627401,0.4211175449995743,0,0,0,0.38748483707422565,0,0,5.000632817606856
17,23,female,28,135,25,left,change,catch,anti,1,0.5374901934119407,0,j,0,same,0.41572813154925825,0,0,0,0,0.3874360847803473,0,0,5.4564751065017845
17,23,female,29,135,85,left,change,valid,anti,2,0.360315696762882,1,j,0,same,1.542810928981453,0.41965821216526034,0,0,0,0.38750151549083967,0,0,4.961723355107097
17,23,female,30,105,155,left,change,valid,clock,1,0.5214519716137147,0,j,0,same,1.7543865838824786,0.41824467556650347,0,0,0,0.3874287077887857,0,0,4.935692837454553
17,23,female,31,105,105,left,same,valid,clock,1,0.4574889617751978,0,j,1,same,0.9315447228527773,0.42215218562076323,0,0,0,0.38748868593938823,0,0,4.300685226322457
17,23,female,32,15,325,left,change,valid,anti,2,2.1053116907360163,1,f,1,change,2.485897757458588,0.4257286156415042,0,0,0,0.3875185146462172,0,0,7.912843086251087
17,23,female,33,105,55,left,change,valid,anti,2,0.5772743105562768,1,j,0,same,2.0726219945972844,0.4244788504580045,0,0,0,0.38752653311530594,0,0,5.619285637767462
17,23,female,34,135,135,left,same,valid,anti,2,0.3134698739686428,1,j,1,same,0.9024367166348384,0.4231667511421513,0,0,0,0.3875242879439611,0,0,4.082126767510999
17,23,female,35,135,185,right,change,valid,clock,2,0.43305251584297366,1,j,0,same,1.7613421249970997,0.42186382029187447,0,0,0,0.3874906103719695,0,0,5.401165628863055
17,23,female,36,45,45,left,same,valid,clock,2,0.7932338230584719,1,j,1,same,0.8983065634056402,0.420556133434118,0,0,0,0.38745564984583325,0,0,4.442619191340782
17,23,female,37,165,115,right,change,valid,anti,2,0.45749248990159685,1,f,1,change,0.6598831484488983,0.419243830155684,0,0,0,0.3874415373393276,0,0,3.9551174192592953
17,23,female,38,75,75,left,same,valid,anti,2,0.2974935547545101,1,j,1,same,1.0058698403554445,0.41798789676809567,0,0,0,0.38745564984583325,0,0,4.254857428405558
17,23,female,39,45,95,right,change,valid,clock,2,0.2733778475994768,1,f,1,change,1.7760002078393882,0.4167852277068835,0,0,0,0.3874912518504061,0,0,5.2824460950378125
17,23,female,40,75,125,right,change,valid,clock,2,0.2894988200014268,1,f,1,change,1.1641595585615505,0.4156230174519489,0,0,0,0.3874970251472405,0,0,4.248328790603409
17,23,female,41,15,95,right,same,catch,anti,1,0.4174543476456165,0,j,1,same,0.3405559429365894,0,0,0,0,0.38745757427841454,0,0,5.159834716892874
17,23,female,42,15,15,left,same,valid,clock,2,0.5282667084056811,1,j,1,same,1.1367495434287775,0.41448965260761295,0,0,0,0.38743897142921924,0,0,4.943024605155188
17,23,female,43,105,165,left,change,catch,clock,1,0.3374669077766157,0,j,0,same,0.2537444648505698,0,0,0,0,0.38750600583352934,0,0,5.26942987399525
17,23,female,44,75,75,left,same,valid,clock,2,0.3682857346302626,1,j,1,same,1.1397510169026646,0.4132968758811407,0,0,0,0.38752589163777884,0,0,4.8342649725673255
17,23,female,45,45,45,right,same,valid,clock,2,0.2734038274402337,1,j,1,same,1.0852738563899038,0.41211081063003363,0,0,0,0.38749798736444063,0,0,4.412658019977243
17,23,female,46,45,355,left,change,valid,anti,2,0.6254085410173502,1,j,0,same,1.3363552271757726,0.4109198872733661,0,0,0,0.3874726490012108,0,0,4.988908532357527
17,23,female,47,105,105,right,same,valid,anti,1,0.3775095403752857,0,j,1,same,0.2662433342466102,0.40971342356506946,0,0,0,0.38745949871099583,0,0,3.907059524626675
17,23,female,48,75,105,right,same,catch,anti,1,0.44148024794412777,0,j,1,same,0.9347014338945883,0,0,0,0,0.38748868593938823,0,0,5.9244717913452405
17,23,female,49,165,165,right,same,valid,clock,2,0.432527466465217,1,j,1,same,0.49845949165501224,0.4129229316745643,0,0,0,0.3875181939074537,0,0,3.788698256014868
17,23,female,50,15,15,right,same,valid,anti,2,0.4574491901666988,1,j,1,same,1.1017399437168933,0.4117888888077867,0,0,0,0.38756181438111525,0,0,4.556324936605961
17,23,female,51,105,55,right,change,valid,anti,2,0.36143764100506814,1,f,1,change,1.1686136579546655,0.41064642630768255,0,0,0,0.38742902852663974,0,0,4.591920846802168
17,23,female,52,45,45,right,same,valid,anti,1,0.47348356309976225,0,j,1,same,0.2734878609999214,0.40949031459719265,0,0,0,0.38742646261744085,0,0,3.732273248911042
17,23,female,53,15,15,right,same,valid,clock,1,0.3934422391157568,0,j,1,same,0.3086446798097313,0.4125803365367623,0,0,0,0.3875759268867114,0,0,3.4107534731192573
17,23,female,54,135,135,right,same,valid,anti,1,0.3374239287804812,0,j,1,same,0.551692827190891,0.4154091828715655,0,0,0,0.3874412166005641,0,0,3.8247515397069947
17,23,female,55,45,355,right,same,catch,anti,1,0.35353720345210604,0,j,1,same,1.0065671264565026,0,0,0,0,0.3874088219845362,0,0,5.830837237258493
17,23,female,56,135,325,right,change,catch,clock,1,0.3924659102794976,0,j,0,same,0.29288261409783445,0,0,0,0,0.3874720075236837,0,0,5.706397006608313
17,23,female,57,135,135,left,same,valid,clock,1,0.3283149475173559,0,j,1,same,0.5421858091058311,0.4183813362830655,0,0,0,0.3875063265722929,0,0,4.150542593788487
17,23,female,58,15,15,left,same,valid,anti,1,0.32948532331374736,0,j,1,same,0.3523013969452222,0.4213967704601388,0,0,0,0.38748868594029773,0,0,3.799511322399667
17,23,female,1,15,15,right,same,valid,anti,1,0.4645102543399844,0,j,1,same,0.19913291479042527,0.4241737731565248,0,0,0,0.3874546876295426,0,0,3.7294574831885257
17,23,female,2,165,165,right,same,valid,anti,2,0.5159339816955253,1,j,1,same,0.9942315130983843,0.4268113287393493,0,0,0,0.3874957421930958,0,0,4.353438736648059
17,23,female,3,45,45,left,same,valid,anti,2,0.5054977833742669,1,j,1,same,1.039740817409438,0.4258546963761096,0,0,0,0.38747553564917325,0,0,4.7681690498629905
17,23,female,4,165,165,left,same,valid,clock,2,0.6973762285097109,1,j,1,same,1.4375454246292065,0.42492120427131613,0,0,0,0.3874386506904557,0,0,5.336708039831137
17,23,female,5,135,25,left,change,catch,anti,1,0.3053551829143544,0,j,0,same,2.373252374589356,0,0,0,0,0.38744955580841633,0,0,7.110095509592611
17,23,female,6,165,115,left,change,valid,anti,2,0.7360823426251955,1,j,0,same,4.165893472388234,0.4239401092360491,0,0,0,0.3875175524290171,0,0,8.101206875869138
17,23,female,7,105,55,left,change,valid,anti,2,0.47343930114948307,1,j,0,same,2.3456707642108086,0.4229673219319504,0,0,0,0.38743031148169393,0,0,5.899224838523878
17,23,female,8,75,75,right,same,valid,clock,1,0.4414731916913297,0,j,1,same,0.8295751301711789,0.4219948434320239,0,0,0,0.38746302683739486,0,0,4.297345052700621
17,23,female,9,45,45,right,same,valid,clock,3,1.0094303615169338,1,j,1,same,0.9361146089449903,0.4245433116761184,0,0,0,0.3875044021397116,0,0,5.238256310054567
17,23,female,10,45,45,left,same,valid,clock,2,0.44151328403859225,1,j,1,same,0.7675994177943721,0.4236025829986543,0,0,0,0.38745083876347053,0,0,4.275091234145293
17,23,female,11,165,165,right,same,valid,clock,2,0.9935390380787794,1,j,1,same,1.0409528892469098,0.4226666187706074,0,0,0,0.387500553274549,0,0,5.135796307783494
17,23,female,12,75,125,right,change,valid,clock,2,1.3934361450792494,1,f,1,change,1.2724730435102174,0.42172808383518745,0,0,0,0.3874161989760978,0,0,5.993715765144771
17,23,female,13,135,85,right,change,valid,anti,2,1.4813599452427297,1,f,1,change,2.8827763918307028,0.4207798210773814,0,0,0,0.3875348723231582,0,0,7.7942726959563515
17,23,female,14,105,165,left,change,catch,clock,2,0.47336232384259347,1,j,0,same,1.846940248289684,0,0,0,0,0.3875249294214882,0,0,6.9226512780478515
17,23,female,15,15,325,left,change,valid,anti,2,0.6562308959973961,1,f,1,change,1.5935194088660865,0.41981526136716313,0,0,0,0.3874206893187875,0,0,5.648644461706681
17,23,female,16,15,65,right,change,valid,clock,2,1.505475331659909,1,j,0,same,1.1201881966844667,0.41887245995350375,0,0,0,0.3874408958618005,0,0,5.719853281253563
17,23,female,17,75,75,right,same,valid,anti,2,0.8254914840645142,1,j,1,same,0.8152560682174226,0.41797100822406863,0,0,0,0.3874870822455705,0,0,5.057505896782459
17,23,female,18,15,65,left,change,valid,clock,2,0.41742804706700554,1,j,0,same,0.8950375937920398,0.4171035219633096,0,0,0,0.3874800259927724,0,0,4.393904744431893
17,23,female,19,135,135,left,same,valid,clock,1,0.4414148172336354,0,j,1,same,0.5978946065206401,0.41626327196699414,0,0,0,0.3875156279973453,0,0,4.209286542250084
17,23,female,20,135,135,right,same,valid,anti,2,0.9213702473725789,1,j,1,same,1.2181190466872067,0.4187222607636603,0,0,0,0.38755251295606286,0,0,5.124031930186902
17,23,female,21,75,75,left,same,valid,anti,2,0.48943358173437446,1,j,1,same,1.447802329975275,0.417857168750325,0,0,0,0.3874460276820173,0,0,5.15792503821649
17,23,female,22,105,105,right,same,valid,anti,1,0.9774167827199562,0,j,1,same,1.1775895326263708,0.4170236099158605,0,0,0,0.38747938451524533,0,0,4.9524389297330345
17,23,female,23,45,355,right,same,catch,anti,1,0.3854879174496091,0,j,1,same,0.38426397827697656,0,0,0,0,0.38751145839250967,0,0,5.737196909874001
17,23,female,24,75,105,right,same,catch,anti,2,0.36849646000609937,1,j,1,same,1.0925632865719308,0,0,0,0,0.38754641891955544,0,0,6.096009945468722
17,23,female,25,165,215,left,change,valid,clock,2,1.256209342350303,1,f,1,change,1.18137104280504,0.4194496651064036,0,0,0,0.3874611024048136,0,0,5.88272090402188
17,23,female,26,105,55,right,change,valid,anti,2,0.5374808919877978,1,j,0,same,0.9099766438021106,0.4185826081746601,0,0,0,0.38752396720428806,0,0,4.816244264388843
17,23,female,27,135,105,left,same,catch,anti,2,0.5695271861395668,1,j,1,same,1.032438557676869,0,0,0,0,0.3874684793963752,0,0,6.345746458562644
17,23,female,28,165,165,left,same,valid,anti,2,8.568514613821208,1,j,1,same,0.1118428944491825,0.417751172110388,0,0,0,0.3874890066781518,0,0,12.17187942018154
17,23,female,29,15,325,right,change,valid,anti,2,1.297416256708857,1,j,0,same,1.5286894421133184,0.4169490884238241,0,0,0,0.3874684793963752,0,0,5.785339158805073
17,23,female,30,135,185,left,change,valid,clock,2,0.8094468474910173,1,j,0,same,1.1600945153022622,0.41617061187240356,0,0,0,0.3874691208748118,0,0,5.469387087441646
17,23,female,31,105,105,left,same,valid,clock,2,0.6414823648201491,1,j,1,same,1.91960682557783,0.4154104284130362,0,0,0,0.3875355138006853,0,0,5.73632097227437
17,23,female,32,165,115,right,change,valid,anti,2,0.4334858339307175,1,f,1,change,1.0925126098454712,0.4146635746164451,0,0,0,0.3874123501109352,0,0,4.145561520584124
17,23,female,33,75,75,left,same,valid,clock,2,0.6895399387130965,1,j,1,same,1.0658393316834918,0.41387415283339707,0,0,0,0.3875044021397116,0,0,4.826569487094275
17,23,female,34,105,135,right,same,catch,anti,1,0.2415102049453708,0,j,1,same,1.163022218858714,0,0,0,0,0.38748355411917146,0,0,6.174089631092102
17,23,female,35,105,105,left,same,valid,anti,1,0.416270500821156,0,j,1,same,0.4581115157407112,0.4130883229612139,0,0,0,0.38745885723346873,0,0,4.273955177397511
17,23,female,36,15,15,right,same,valid,clock,2,0.6491380786847003,1,j,1,same,1.105200073641754,0.41513633232131814,0,0,0,0.3874864407680434,0,0,4.5899515107112165
17,23,female,37,105,155,right,change,valid,clock,2,1.577235821902832,1,f,1,change,4.000516068691468,0.41441613980058134,0,0,0,0.38742838705002214,0,0,8.609876445008922
17,23,female,38,45,355,left,change,valid,anti,2,0.3293701780939955,1,j,0,same,1.1854720088058457,0.4136529072964015,0,0,0,0.38747296973906487,0,0,4.541698606903083
17,23,female,39,135,185,right,change,valid,clock,2,0.33749032170726423,1,f,1,change,0.9189329534074204,0.4128914198516244,0,0,0,0.3874790637764818,0,0,4.217395460006628
17,23,female,40,75,25,left,change,valid,anti,2,0.8014771303633097,1,j,0,same,0.979653614950621,0.4121267745610199,0,0,0,0.38745083876438,0,0,5.028058869678716
17,23,female,41,75,125,left,change,valid,clock,1,0.817447997018462,0,f,1,change,0.9503422603493163,0.411354146805535,0,0,0,0.38749157258826017,0,0,4.979768118693755
17,23,female,42,135,325,right,change,catch,clock,1,0.4494823596878632,0,j,0,same,0.47554430974105344,0,0,0,0,0.38749542145433225,0,0,5.4876130684369855
17,23,female,43,45,45,right,same,valid,anti,2,0.5844312756225918,1,j,1,same,1.0904050353419734,0.41339677403250935,0,0,0,0.3874299907429304,0,0,4.733276199066495
17,23,female,44,165,215,right,change,valid,clock,2,0.3294769841058951,1,f,1,change,0.7538252910217125,0.4126572230037436,0,0,0,0.38749285554422386,0,0,4.3732466012907025
17,23,female,45,135,85,left,change,valid,anti,1,0.4495266216390519,0,j,0,same,0.35880630007886793,0.4119128928363013,0,0,0,0.38744634842078085,0,0,4.004463080080313
17,23,female,46,15,15,left,same,valid,anti,2,0.4173693518696382,1,j,1,same,0.7341072332365002,0.41387291529942205,0,0,0,0.38748708224648,0,0,4.249090224458996
17,23,female,47,15,95,right,same,catch,anti,1,0.4254760244557474,0,j,1,same,0.5974907964009617,0,0,0,0,0.38746687570255745,0,0,5.643721121481576
17,23,female,48,105,155,left,change,valid,clock,1,0.5360888856957899,0,f,1,change,1.2122261131407868,0.41315534200229076,0,0,0,0.3874777808214276,0,0,4.964312999991307
17,23,female,49,15,15,left,same,valid,clock,1,0.7054171496465642,0,f,0,change,0.8942729525479081,0.41502645280216655,0,0,0,0.3874726490012108,0,0,4.586058704176139
17,23,female,50,45,355,right,change,valid,anti,2,0.4574389265253558,1,f,1,change,1.1285055946473221,0.41700125564559987,0,0,0,0.3874514802409976,0,0,4.614388598120968
17,23,female,51,135,135,right,same,valid,clock,2,2.28945744469911,1,j,1,same,1.3739342652288542,0.4163278394217995,0,0,0,0.3875082510048742,0,0,6.6512485398361605
17,23,female,52,45,95,left,change,valid,clock,1,0.4814600157415043,0,j,0,same,0.41878862095836666,0.41567005172272553,0,0,0,0.38748932741691533,0,0,3.5323731269654672
17,23,female,53,45,95,right,change,valid,clock,1,0.505522159521206,0,j,0,same,0.3116426251572193,0.41760891861140764,0,0,0,0.3874447447278726,0,0,3.9254291965944503
17,23,female,54,75,25,right,change,valid,anti,1,0.5597109758737133,0,j,0,same,0.9980274565223226,0.41962250295523673,0,0,0,0.3874832333804079,0,0,4.272895456478182
17,23,female,55,135,135,left,same,valid,anti,1,0.5294540833574501,0,j,1,same,0.24325117502667126,0.42164436653495135,0,0,0,0.3874819504253537,0,0,3.9651485245049116
17,23,female,56,45,125,left,change,catch,anti,1,0.9934742488458141,0,f,1,change,0.49167009322536614,0,0,0,0,0.38746751718099404,0,0,5.784067750293616
17,23,female,57,75,85,left,change,catch,clock,1,1.960312104489276,0,j,0,same,0.12055736701677233,0,0,0,0,0.3875489848296638,0,0,6.907472636170496
17,23,female,58,105,105,right,same,valid,clock,2,1.000500993969581,1,f,0,change,1.0574619555700338,0.42348964524494803,0,0,0,0.38744763137583504,0,0,5.2998638143153585
17,23,female,1,165,165,right,same,valid,clock,2,0.4081987887620926,1,j,1,same,0.6727476600508453,0.42281807540164185,0,0,0,0.387437367734492,0,0,3.8892363915347232
17,23,female,2,135,85,left,change,valid,anti,2,0.249341683660532,1,j,0,same,0.9329521246054355,0.4221425168887527,0,0,0,0.38748483707422565,0,0,4.112740642285644
17,23,female,3,105,105,left,same,valid,clock,2,0.3053747479798403,1,f,0,change,0.7374919895491985,0.42145918258745724,0,0,0,0.38745949871099583,0,0,4.232356961731057
17,23,female,4,15,15,right,same,valid,clock,2,0.3133332392508237,1,j,1,same,0.7289702809866867,0.42076428493979806,0,0,0,0.3874527631969613,0,0,4.299812175371699
17,23,female,5,105,55,left,change,valid,anti,2,0.25743199856788124,1,j,0,same,1.170543543174972,0.4200539957767429,0,0,0,0.3874447447278726,0,0,4.528606050031158
17,23,female,6,135,85,right,change,valid,anti,2,0.3614427728252849,1,f,1,change,0.60553845305094,0.41934384838419536,0,0,0,0.3875149865189087,0,0,3.8914068308376955
17,23,female,7,165,215,left,change,valid,clock,2,0.5134501806078333,1,j,0,same,0.8628758336799365,0.4186640711593037,0,0,0,0.38743448108652956,0,0,4.350112034055201
17,23,female,8,15,15,left,same,valid,clock,2,0.2574823545564868,1,j,1,same,0.9216409509008372,0.41801085906110574,0,0,0,0.3874328773927118,0,0,4.300372826754938
17,23,female,9,15,15,right,same,valid,anti,2,0.3694824110061745,1,j,1,same,0.7362382216706465,0.4173802901342082,0,0,0,0.3875242879439611,0,0,4.28890769843656
17,23,female,10,15,325,right,change,valid,anti,2,0.38543724072223995,1,f,1,change,1.2765817072413483,0.41676874103040856,0,0,0,0.3874758563888463,0,0,4.741993558282957
17,23,female,11,165,165,left,same,valid,clock,1,0.8014338306284117,0,j,1,same,0.977836629779631,0.4161728417930936,0,0,0,0.38747874303771823,0,0,4.926205063695306
17,23,female,12,45,355,right,change,valid,anti,2,0.6654620787339809,1,f,1,change,1.3092287451217999,0.41792403677307466,0,0,0,0.3874287077887857,0,0,4.987139978741652
17,23,female,13,75,75,left,same,valid,anti,2,1.9694829883364946,1,j,1,same,0.9496388802108413,0.4173120737230545,0,0,0,0.3874710453064836,0,0,6.1695486114895175
17,23,female,14,45,95,right,change,valid,clock,2,0.48094683369890845,1,f,1,change,0.9478725717672205,0.41671813282135484,0,0,0,0.38746623422503035,0,0,4.166218380769351
17,23,female,15,135,135,left,same,valid,clock,2,0.3694737510595587,1,j,1,same,1.2180956327565582,0.4161390330433479,0,0,0,0.387430632221367,0,0,4.903684069738119
17,23,female,16,165,115,right,change,valid,anti,2,2.3535016014484427,1,f,1,change,1.3111573473879616,0.41557178996616906,0,0,0,0.38745115950314357,0,0,6.572204392709864
17,23,female,17,45,45,right,same,valid,clock,2,0.36145303646662796,1,j,1,same,0.7964694358397537,0.4150135828454747,0,0,0,0.3874697623514294,0,0,3.9714398156138486
17,23,female,18,75,125,left,change,valid,clock,2,0.609381865814612,1,f,1,change,0.9550814965159589,0.4144617248664657,0,0,0,0.3874983081022947,0,0,4.719792661624524
17,23,female,19,105,155,right,change,valid,clock,2,1.9454618991194366,1,f,1,change,1.0412123669175344,0.4138754826765421,0,0,0,0.3874697623523389,0,0,5.9835172342563965
17,23,female,20,45,355,right,same,catch,anti,2,0.3614119819030748,1,f,0,change,1.1333115444795112,0,0,0,0,0.3874912518494966,0,0,6.376918739548273
17,23,female,21,75,105,right,same,catch,anti,1,0.5123923841219948,0,j,1,same,0.28426981572283694,0,0,0,0,0.387490289633206,0,0,5.62819287433922
17,23,female,22,75,125,right,change,valid,clock,2,0.7442922930968052,1,f,1,change,0.8862721237583173,0.4132900196078634,0,0,0,0.38745308393572486,0,0,4.920603360958012
17,23,female,23,105,155,left,change,valid,clock,2,0.6653180670227812,1,f,1,change,2.2494497726283953,0.412702358712305,0,0,0,0.3874534046744884,0,0,6.117039183372981
17,23,female,24,15,65,left,change,valid,clock,2,1.4812229897852376,1,j,0,same,1.2189657970584449,0.4121095585352594,0,0,0,0.38751466578105465,0,0,5.4729941157265785
17,23,female,25,45,45,right,same,valid,anti,2,0.9293813398026032,1,f,0,change,1.8405585088466978,0.4115086845644123,0,0,0,0.3875018362296032,0,0,6.083591902243825
17,23,female,26,15,15,left,same,valid,anti,2,0.3134827035200942,1,j,1,same,0.5539036795789798,0.4108967815681173,0,0,0,0.38742036858002393,0,0,3.958484855676943
17,23,female,27,45,45,left,same,valid,anti,1,0.4895272374569686,0,f,0,change,0.15542455871127459,0.4102708464057596,0,0,0,0.38744955580841633,0,0,3.786058575881725
17,23,female,28,105,105,right,same,valid,anti,2,0.3534846022930651,1,j,1,same,0.775182965435306,0.4119432093540346,0,0,0,0.38744089586271,0,0,3.8741693667525396
17,23,female,29,45,45,left,same,valid,clock,1,1.0495387455648597,0,j,1,same,0.6596576690890288,0.4113529342848947,0,0,0,0.3874639890536855,0,0,5.011972216324466
17,23,female,30,135,135,left,same,valid,anti,2,1.305448517898185,1,j,1,same,0.6571437185557443,0.4129184331057506,0,0,0,0.3874752149113192,0,0,5.099402078772982
17,23,female,31,135,25,left,change,catch,anti,1,0.2975233834604296,0,j,0,same,1.0865186435830765,0,0,0,0,0.38741042567835393,0,0,5.924356646124579
17,23,female,32,165,165,left,same,valid,anti,2,11.00815478340246,1,j,1,same,1.4658708282313455,0.41235438521992984,0,0,0,0.38748804446277063,0,0,15.746673778514378
17,23,female,33,15,65,right,change,valid,clock,2,4.137455489475542,1,j,0,same,1.8243140520153247,0.411783501752282,0,0,0,0.3874845163354621,0,0,9.197238952312546
17,23,female,34,165,115,left,change,valid,anti,2,3.4174646112869596,1,j,0,same,1.0583298747005756,0.41120308239690206,0,0,0,0.3874501972868529,0,0,7.368239548245583
17,23,female,35,105,135,right,same,catch,anti,2,25.265376698071123,1,j,1,same,0.4462012020003385,0,0,0,0,0.3875489848296638,0,0,30.524717092361243
17,23,female,36,75,75,right,same,valid,clock,2,4.0957751646838005,1,j,1,same,0.8620297247871349,0.41061038993603416,0,0,0,0.3875515507397722,0,0,8.36917578473549
17,23,female,37,75,25,right,change,valid,anti,1,6.1295191291810625,0,j,0,same,0.2186954142698596,0.4100026264632409,0,0,0,0.3874732904778284,0,0,9.686246272213793
17,23,female,38,15,325,left,change,valid,anti,1,0.8174582606588956,0,f,1,change,1.5709054006638326,0.4116299234576025,0,0,0,0.38745821575594164,0,0,5.26113107888159
17,23,female,39,45,95,left,change,valid,clock,2,4.313477250961114,1,f,1,change,0.8131090428450989,0.4131155554297139,0,0,0,0.3875063265732024,0,0,8.234966492419517
17,23,female,40,15,95,right,same,catch,anti,2,2.1693362824189535,1,f,0,change,1.9574212858933606,0,0,0,0,0.3874200478412604,0,0,8.716136239568186
17,23,female,41,105,105,right,same,valid,clock,1,4.855664022282326,0,j,1,same,0.7260807453458256,0.41257763941257986,0,0,0,0.3874216515350781,0,0,8.89145526239281
17,23,female,42,75,25,left,change,valid,anti,2,0.6734410972858313,1,j,0,same,1.3170778644698657,0.41399160622181874,0,0,0,0.38745757427841454,0,0,4.981673307028359
17,23,female,43,105,165,left,change,catch,clock,2,0.7614579116952882,1,f,1,change,1.1737111593365626,0,0,0,0,0.3875044021397116,0,0,6.657478249099768
17,23,female,44,105,105,left,same,valid,anti,1,0.9925238998503119,0,j,1,same,1.1191076277445973,0.4134693754141093,0,0,0,0.3874473106370715,0,0,5.700962408774103
17,23,female,45,45,125,left,change,catch,anti,2,97.06489924632751,1,j,0,same,2.259424107111954,0,0,0,0,0.3874200478412604,0,0,104.14082837845308
17,23,female,46,135,185,right,change,valid,clock,2,0.4242091062869804,1,f,1,change,1.564540981114078,0.4148320438709021,0,0,0,0.38748676150680694,0,0,5.250954037492193
17,23,female,47,135,105,left,same,catch,anti,2,0.297346977133202,1,f,0,change,0.8852412693304359,0,0,0,0,0.3874248589227136,0,0,5.487473547069385
17,23,female,48,165,215,right,change,valid,clock,2,1.7685545778722371,1,f,1,change,0.7059919135344899,0.4143187732346206,0,0,0,0.387490289633206,0,0,5.515112248949663
17,23,female,49,135,325,right,change,catch,clock,2,2.1135097738724653,1,f,1,change,1.0403422026156477,0,0,0,0,0.3874684793972847,0,0,7.389900641541317
17,23,female,50,45,355,left,change,valid,anti,2,0.528272481703425,1,f,1,change,1.105130794066099,0.41380756193905444,0,0,0,0.3874107464171175,0,0,5.043337261314264
17,23,female,51,135,185,left,change,valid,clock,2,0.7774319857389855,1,j,0,same,1.2335388841238455,0.41329607451833733,0,0,0,0.3875143450422911,0,0,5.22683833033625
17,23,female,52,135,135,right,same,valid,anti,2,1.0894643085093776,1,j,1,same,1.3875518714785358,0.41278201266871356,0,0,0,0.3874720075236837,0,0,5.695050872377578
17,23,female,53,75,75,right,same,valid,anti,3,0.8813337088113258,1,j,1,same,1.1875895262110134,0.41226309526552724,0,0,0,0.38745564984492376,0,0,5.488609283078404
17,23,female,54,105,55,right,change,valid,anti,2,0.5774965825285108,1,f,1,change,0.7825808053239598,0.4117370390910965,0,0,0,0.3873982376044296,0,0,4.684258333274556
17,23,female,55,75,85,left,change,catch,clock,1,0.6415105898322508,0,j,0,same,0.4523754234551234,0,0,0,0,0.3875092132220743,0,0,5.784169424486208
17,23,female,56,135,135,right,same,valid,clock,2,0.9122170041582649,1,j,1,same,1.4186208745777549,0.4112015400116531,0,0,0,0.38750279844589386,0,0,5.509941939866621
17,23,female,57,75,75,left,same,valid,clock,2,0.3614620171520073,1,j,1,same,0.8103019370691982,0.4106542543575114,0,0,0,0.38745885723346873,0,0,4.433390895253069
17,23,female,58,165,165,right,same,valid,anti,2,3.5534626637618203,1,j,1,same,2.0279049150658466,0.4100927802719358,0,0,0,0.38751145839250967,0,0,8.690374180271647
17,23,female,1,45,45,right,same,valid,anti,1,0.46447946341686475,0,j,1,same,0.215985171605098,0.4095252723478121,0,0,0,0.3874521217194342,0,0,3.5294223302189494
17,23,female,2,15,15,right,same,valid,clock,1,0.4095029126283407,0,j,1,same,0.24869379133178882,0.4110682510811804,0,0,0,0.3874348018252931,0,0,3.5029081384900564
17,23,female,3,15,95,right,same,catch,anti,1,0.9934354394536058,0,j,1,same,0.8095562194139347,0,0,0,0,0.3874710453064836,0,0,6.205293344477468
17,23,female,4,105,105,right,same,valid,anti,2,0.5437644853645907,1,j,1,same,0.8992427998955463,0.41247350479320527,0,0,0,0.387473931956265,0,0,4.733194731416916
17,23,female,5,15,15,right,same,valid,anti,2,1.2495087885627072,1,j,1,same,1.035571213309595,0.41197107340815137,0,0,0,0.38746014018852293,0,0,5.397155111196298
17,23,female,6,75,75,left,same,valid,anti,2,0.545455099458195,1,j,1,same,0.8805876704163893,0.41146034421489874,0,0,0,0.3875384004504667,0,0,4.77410271723511
17,23,female,7,165,165,right,same,valid,clock,2,0.3214639672432895,1,j,1,same,0.6414541398080473,0.41093915908977036,0,0,0,0.38739535095555766,0,0,4.03133265037377
17,23,female,8,135,135,right,same,valid,clock,3,1.2094979091034475,1,j,1,same,0.6973909824937436,0.41040531160191707,0,0,0,0.3875088924824013,0,0,5.125539081698662
17,23,female,9,135,105,left,same,catch,anti,1,0.3854853515395007,0,j,1,same,0.24329030515673367,0,0,0,0,0.38748804446186114,0,0,5.113253182851622
17,23,female,10,165,215,right,change,valid,clock,2,0.5684222410527582,1,f,1,change,0.7833938781232064,0.4098565313646968,0,0,0,0.38751466578014515,0,0,4.465117412844847
17,23,female,11,135,85,left,change,valid,anti,2,1.5131557424110724,1,f,1,change,0.8207253058408241,0.409316790636367,0,0,0,0.38745693280088744,0,0,5.514458262583503
17,23,female,12,135,25,left,change,catch,anti,1,0.3854382029394401,0,j,0,same,0.25785184562755603,0,0,0,0,0.38745821575594164,0,0,4.9884354426612845
17,23,female,13,135,85,right,change,valid,anti,2,0.7124426118143674,1,f,1,change,0.7452477739125243,0.4087989928294835,0,0,0,0.38751530725767225,0,0,4.620620231817156
17,23,female,14,45,355,left,change,valid,anti,1,1.121490396119043,0,j,0,same,0.33581574455365626,0.40830063545931483,0,0,0,0.38744763137674454,0,0,4.457514300138428
17,23,female,15,105,105,right,same,valid,clock,2,0.897465907071819,1,f,0,change,0.843073742335946,0.4097451528158477,0,0,0,0.38747296973997436,0,0,5.002446274651447
17,23,female,16,75,25,right,change,valid,anti,2,0.92143375365049,1,f,1,change,2.1998648406797656,0.40921901204694755,0,0,0,0.38740401090217347,0,0,5.977429291533554
17,23,female,17,75,125,left,change,valid,clock,1,0.345454907014755,0,j,0,same,0.42315291349495965,0.40871389759270776,0,0,0,0.38749221406578727,0,0,3.673063587744764
17,23,female,18,135,185,left,change,valid,clock,1,0.3215306809088361,0,j,0,same,1.106484311704662,0.41017031959224975,0,0,0,0.3874995910582584,0,0,4.286184626221257
17,23,female,19,45,355,right,change,valid,anti,1,0.3853904128609429,0,j,0,same,2.6159454641447155,0.411568660273689,0,0,0,0.3874553291070697,0,0,6.0425565831319545
17,23,female,20,45,95,right,change,valid,clock,2,0.45748575438665284,1,f,1,change,0.7596236066301572,0.41284647633582083,0,0,0,0.38748227116411726,0,0,4.29995907373177
17,23,female,21,75,75,right,same,valid,clock,2,0.7134795602805752,1,j,1,same,0.9852286963696315,0.4123856006708099,0,0,0,0.38746815865761164,0,0,4.640870074495069
17,23,female,22,105,105,left,same,valid,anti,1,0.6654489284437659,0,j,1,same,0.6748459331283811,0.41191831147003716,0,0,0,0.3874726490003013,0,0,4.454130185303256
17,23,female,23,15,15,left,same,valid,clock,1,0.8894615501558292,0,j,1,same,0.5214712159395276,0.41315507588239064,0,0,0,0.3876057555935404,0,0,4.4556129606689865
17,23,female,24,165,215,left,change,valid,clock,1,0.5454281574011475,0,j,0,same,0.5403729935387673,0.4143232199056486,0,0,0,0.3875714365440217,0,0,3.824411877341845
17,23,female,25,105,55,right,change,valid,anti,1,0.4494983966269501,0,j,0,same,0.4921229763785959,0.4154566784750361,0,0,0,0.3875149865198182,0,0,4.025224180368241
17,23,female,26,75,25,left,change,valid,anti,1,0.9852889952599071,0,f,1,change,1.198604016547506,0.4166771730126658,0,0,0,0.3875011947520761,0,0,5.239140907600813
17,23,female,27,75,125,right,change,valid,clock,2,1.6093680740468699,1,f,1,change,1.6069737590769364,0.4179316995968011,0,0,0,0.3875614936423517,0,0,6.492197708514141
17,23,female,28,165,115,right,change,valid,anti,2,101.98480179305807,1,j,0,same,3.1092628717278785,0.41748955873024024,0,0,0,0.3874168404536249,0,0,108.44102223296977
17,23,female,29,45,45,left,same,valid,anti,1,0.7694760603781106,0,j,1,same,0.946469660357252,0.41706008728444716,0,0,0,0.38746687570255745,0,0,4.708435622274919
17,23,female,30,45,355,right,same,catch,anti,2,0.3773183800640254,1,f,0,change,0.8757781924578012,0,0,0,0,0.3874392921679828,0,0,5.814949762684591
17,23,female,31,75,75,left,same,valid,clock,2,0.6961077066480357,1,j,1,same,0.8834326233663887,0.4183163778845238,0,0,0,0.3875268538540695,0,0,4.807533640685506
17,23,female,32,45,125,left,change,catch,anti,2,0.46546509367726685,1,f,1,change,0.950303771696781,0,0,0,0,0.38744634842078085,0,0,5.908892867475515
17,23,female,33,75,85,left,change,catch,clock,1,0.32047865772074147,0,j,0,same,0.27214973882291815,0,0,0,0,0.3875197976012714,0,0,5.0666597814743
17,23,female,34,15,325,right,change,valid,anti,2,1.1681476245121303,1,f,1,change,1.2045075344758516,0.4178699015104287,0,0,0,0.38748547855175275,0,0,5.607373078855744
17,23,female,35,135,135,left,same,valid,anti,2,3.1934410844551167,1,j,1,same,2.0705291740778193,0.4174373804969844,0,0,0,0.3873995205594838,0,0,8.821669881537673
17,23,female,36,105,165,left,change,catch,clock,1,0.4093556935295055,0,j,0,same,0.4782436472869449,0,0,0,0,0.3874328773927118,0,0,5.518380897825409
17,23,female,37,105,155,left,change,valid,clock,1,0.2324557492738677,0,j,0,same,1.1524339903553482,0.41701705205165407,0,0,0,0.3875409663596656,0,0,4.675267383880055
17,23,female,38,105,105,left,same,valid,clock,1,0.7613398798257549,0,j,1,same,1.3734351956936734,0.4182471197292637,0,0,0,0.38749862884105823,0,0,5.153149879306511
17,23,female,39,15,15,left,same,valid,anti,1,0.761436422197221,0,j,1,same,1.1017255104725336,0.4195579883120456,0,0,0,0.3875852283108543,0,0,5.132000043620792
17,23,female,40,165,165,left,same,valid,anti,1,0.6175196500607854,0,j,1,same,0.3011820506890217,0.42091317528054345,0,0,0,0.3875460981817014,0,0,4.04647633172317
17,23,female,41,15,65,left,change,valid,clock,1,1.5375097584783362,0,j,0,same,0.42439000295780716,0.42214867136173506,0,0,0,0.3874261418768583,0,0,4.701218037578656
17,23,female,42,15,325,left,change,valid,anti,1,0.6014791830912145,0,f,1,change,0.5816684317996987,0.42329211272413836,0,0,0,0.3874627060995408,0,0,4.0041320776617795
17,23,female,43,135,135,left,same,valid,clock,1,0.641511872787305,0,j,1,same,0.7158222363068489,0.4243766378140697,0,0,0,0.3875316649355227,0,0,4.257273232873558
17,23,female,44,135,325,right,change,catch,clock,1,0.5374626098782755,0,j,0,same,1.310556603659279,0,0,0,0,0.3875188353831618,0,0,6.470501333953507
17,23,female,45,15,65,right,change,valid,clock,1,0.4804532167217985,0,j,0,same,0.3218690603189316,0.42543165162901203,0,0,0,0.3875287782866508,0,0,4.2181094245243
17,23,female,46,105,135,right,same,catch,anti,1,0.4849413144256687,0,j,1,same,0.9952431231995433,0,0,0,0,0.38745821575503214,0,0,5.971352895405289
17,23,female,47,165,165,right,same,valid,anti,1,0.6562485366284818,0,f,0,change,0.2930535678660817,0.4265687362823994,0,0,0,0.3874578950162686,0,0,4.372439622527963
17,23,female,48,165,165,left,same,valid,clock,1,0.46544905673908943,0,j,1,same,0.5953072068077745,0.4277366254777595,0,0,0,0.3874309529601305,0,0,4.0109112124500825
17,23,female,49,105,55,left,change,valid,anti,1,0.4574722833585838,0,j,0,same,1.0498835397502262,0.4289692489909906,0,0,0,0.38742838705002214,0,0,4.480595624738271
17,23,female,50,165,115,left,change,valid,anti,1,0.5454570238907763,0,f,1,change,0.5742234433109843,0.43029385502647466,0,0,0,0.38751723169116303,0,0,4.378252371383496
17,23,female,51,105,155,right,change,valid,clock,2,1.25754329492338,1,f,1,change,1.033058545732274,0.43155209218752155,0,0,0,0.38746366831583146,0,0,5.161163858385407
17,23,female,52,135,135,right,same,valid,anti,1,0.4654622070283949,0,f,0,change,0.35283350257668644,0.4311092296036793,0,0,0,0.38746430979335855,0,0,4.268027924799753
17,23,female,53,45,95,left,change,valid,clock,1,0.4493842136216699,0,j,0,same,0.3346219548257068,0.4322889542816454,0,0,0,0.38749093111255206,0,0,3.544260668253628
17,23,female,54,45,45,right,same,valid,clock,1,0.6574445715286856,0,j,1,same,0.811763222936861,0.4333846138436741,0,0,0,0.38750600583443884,0,0,4.273842598086048
17,23,female,55,75,75,right,same,valid,anti,3,1.6894084358154942,1,j,1,same,1.1902709023870557,0.43442667444534255,0,0,0,0.38750728878767404,0,0,5.982835664355662
17,23,female,56,135,185,right,change,valid,clock,2,1.3454818490718026,1,f,1,change,1.1444957056282874,0.4340361340231541,0,0,0,0.38744378251067246,0,0,5.645981688381653
17,23,female,57,45,45,left,same,valid,clock,1,2.817411112058835,0,f,0,change,1.5293851245205587,0.4336454391009369,0,0,0,0.387434160347766,0,0,7.7498725063378515
17,23,female,58,75,105,right,same,catch,anti,1,0.5055064433217922,0,j,1,same,0.2662542393663898,0,0,0,0,0.3873969546493754,0,0,5.160112155936076
17,23,female,1,45,95,right,change,valid,clock,2,0.57633711185008,1,f,1,change,0.6897394382322091,0.4346655646179996,0,0,0,0.38743448108652956,0,0,4.337310066513965
17,23,female,2,15,95,right,same,catch,anti,1,0.40944550038693706,0,j,1,same,0.24637517071278126,0,0,0,0,0.38750600583261985,0,0,5.1758434307248535
17,23,female,3,165,115,left,change,valid,anti,2,0.8322343753716268,1,j,0,same,0.6591605239846103,0.4342809837640729,0,0,0,0.38749221406760626,0,0,4.88691456352899
17,23,female,4,15,15,right,same,valid,clock,2,0.5534289861898287,1,j,1,same,0.7704870290035615,0.4338970750180848,0,0,0,0.3875031191855669,0,0,4.122605604847195
17,23,female,5,15,15,right,same,valid,anti,2,0.37744475114232046,1,j,1,same,0.9830091840340174,0.43351246859442144,0,0,0,0.38756502176875074,0,0,4.5873576962239895
17,23,female,6,75,75,right,same,valid,clock,2,0.3694923539078445,1,j,1,same,0.8692691197193199,0.4331258090845409,0,0,0,0.38746078166514053,0,0,4.391543786296097
17,23,female,7,105,165,left,change,catch,clock,2,0.3694907502140268,1,f,1,change,0.9738902598692221,0,0,0,0,0.3874726490012108,0,0,5.986840087984092
17,23,female,8,15,65,right,change,valid,clock,2,0.44052444638873567,1,j,0,same,1.042695463022028,0.43273574653468305,0,0,0,0.3875162694748724,0,0,4.294961322109884
17,23,female,9,135,135,right,same,valid,clock,2,0.5294697995577735,1,f,0,change,0.9346809066137212,0.4323409277567256,0,0,0,0.387493817759605,0,0,4.4833584685620735
17,23,female,10,165,165,right,same,valid,clock,2,1.1851891172045725,1,j,1,same,0.9311861369005783,0.4319399877830132,0,0,0,0.38750408140185755,0,0,5.245206398609298
17,23,female,11,105,155,left,change,valid,clock,2,1.0574346927733131,1,f,1,change,1.338984964408155,0.431531541380197,0,0,0,0.3875117791303637,0,0,5.489759452331782
17,23,female,12,135,85,left,change,valid,anti,2,0.5693918343768019,1,j,0,same,1.1555130826127424,0.431114174540127,0,0,0,0.3874659134871763,0,0,5.301799152095555
17,23,female,13,45,45,right,same,valid,anti,2,0.4014882920728269,1,j,1,same,0.8712105515351141,0.43068643586770367,0,0,0,0.38742582113991375,0,0,4.388797620887999
17,23,female,14,15,325,right,change,valid,anti,1,0.5055061225830286,0,j,0,same,0.47807365573680727,0.43024682778641066,0,0,0,0.38752075981756207,0,0,3.9878789608847
17,23,female,15,15,325,left,change,valid,anti,1,0.5694219838205754,0,j,0,same,0.43930179017115734,0.43142501985546255,0,0,0,0.38743897142921924,0,0,3.857086178019017
17,23,female,16,15,65,left,change,valid,clock,1,0.6813793820147112,0,j,0,same,0.4481439167720964,0.4325014896420877,0,0,0,0.38745500836921565,0,0,4.106553912017262
17,23,female,17,45,45,right,same,valid,clock,2,1.0732878482995147,1,j,1,same,1.3857804312137887,0.4335059979100112,0,0,0,0.3875011947529856,0,0,5.129720873872429
17,23,female,18,45,45,left,same,valid,anti,1,0.41725228221730504,0,j,1,same,0.40884732256927236,0.43313746961003324,0,0,0,0.38749606293094985,0,0,4.132659803284696
17,23,female,19,105,105,right,same,valid,anti,2,2.217530811771212,1,f,0,change,2.003593557255954,0.4341046557434122,0,0,0,0.3875323064130498,0,0,7.133670771909237
17,23,female,20,15,15,left,same,valid,clock,2,0.5374773638613988,1,j,1,same,1.5532041483074863,0.43374474252767536,0,0,0,0.38745436688986956,0,0,5.043198702162044
17,23,female,21,165,215,left,change,valid,clock,1,0.38545263618470926,0,j,0,same,1.4090811411369941,0.4333834774293166,0,0,0,0.3874453862044902,0,0,4.666980776841228
17,23,female,22,105,105,left,same,valid,anti,1,0.5934860520337679,0,j,1,same,0.2673139602829906,0.43432965771038745,0,0,0,0.3874508387652895,0,0,3.6736383516326896
17,23,female,23,75,25,right,change,valid,anti,1,0.5614054388315708,0,j,0,same,0.3060582423113374,0.43525043923507456,0,0,0,0.3875130620872369,0,0,3.702471163978771
17,23,female,24,45,125,left,change,catch,anti,1,0.5774032475437707,0,j,0,same,0.6910862203567376,0,0,0,0,0.38755636182213493,0,0,5.628038919725441
17,23,female,25,75,75,left,same,valid,anti,1,1.9043746203242335,0,j,1,same,1.2415621646268846,0.43624034801420797,0,0,0,0.38749670440847694,0,0,6.330880857733064
17,23,female,26,165,165,left,same,valid,clock,2,0.4731461459068669,1,j,1,same,0.8895914493605233,0.4372515419091509,0,0,0,0.38749477997589565,0,0,4.595615757511041
17,23,female,27,75,105,right,same,catch,anti,1,2.8654430268506985,0,j,1,same,0.33276134918014577,0,0,0,0,0.3874068975510454,0,0,7.842786039651401
17,23,female,28,165,115,right,change,valid,anti,1,0.3282254613986879,0,j,0,same,0.2905495602353767,0.43689881089667937,0,0,0,0.3874912518494966,0,0,4.183994044522478
17,23,female,29,135,135,left,same,valid,clock,1,0.7215596115474909,0,j,1,same,0.17510476932147867,0.4379324444958237,0,0,0,0.38752011834003497,0,0,3.8097717558703152
17,23,female,30,135,325,right,change,catch,clock,1,1.7294805763795011,0,j,0,same,0.8999432933851494,0,0,0,0,0.38750279844680335,0,0,6.968591655275304
17,23,female,31,165,165,left,same,valid,anti,2,1.1283712050990289,1,j,1,same,0.873405687725608,0.43903131303688625,0,0,0,0.3875223635113798,0,0,5.322882274114818
17,23,female,32,165,215,right,change,valid,clock,1,0.48150331547731184,0,f,1,change,0.6129430284545379,0.43863371850830296,0,0,0,0.3874764978663734,0,0,4.082590876521863
17,23,female,33,105,105,left,same,valid,clock,1,1.497459107409668,0,j,1,same,0.3903676371992333,0.43978462806203894,0,0,0,0.3875230049870879,0,0,4.761859476644531
17,23,female,34,105,55,left,change,valid,anti,1,2.8414132776870247,0,j,0,same,0.5889469568628556,0.4409553527500151,0,0,0,0.3875188353849808,0,0,6.434566082130914
17,23,female,35,45,355,right,same,catch,anti,1,0.43349802200282284,0,j,1,same,0.281497670473982,0,0,0,0,0.3875249294214882,0,0,5.2224480579589
17,23,female,36,15,15,left,same,valid,anti,2,0.7363129538043722,1,j,1,same,0.601373018556842,0.4420190038788153,0,0,0,0.3874594987119053,0,0,4.402820640952996
17,23,female,37,105,105,right,same,valid,clock,2,1.9054330582894181,1,j,1,same,0.7001211109618453,0.4416409076437579,0,0,0,0.3874771393439005,0,0,5.482249674611012
17,23,female,38,75,75,left,same,valid,clock,2,0.44144560815584555,1,j,1,same,0.6460714952390845,0.44125462889138584,0,0,0,0.38749157258826017,0,0,3.741372287271588
17,23,female,39,75,125,left,change,valid,clock,1,0.8095170892829628,0,j,0,same,1.6806519464680605,0.44085890717108434,0,0,0,0.38748162968659017,0,0,5.659796228241248
17,23,female,40,165,165,right,same,valid,anti,1,0.4254336869380495,0,j,1,same,0.9551081178342429,0.44191599645911017,0,0,0,0.3875005532736395,0,0,4.532249642537863
17,23,female,41,75,75,right,same,valid,anti,1,1.017530298589918,0,j,1,same,0.2112340681032947,0.4428913148209127,0,0,0,0.3874287077887857,0,0,4.4542199921615975
17,23,female,42,75,125,right,change,valid,clock,1,1.0653752226717188,0,j,0,same,0.5821193905194377,0.4438095120188005,0,0,0,0.3874870822455705,0,0,4.768060960894218
17,23,female,43,135,105,left,same,catch,anti,1,1.169471634182628,0,j,1,same,1.1063236215759389,0,0,0,0,0.38746174388325016,0,0,7.14094801401734
17,23,female,44,75,25,left,change,valid,anti,1,1.7920862197152019,0,j,0,same,0.7752201711336966,0.44469238346569834,0,0,0,0.38751338282600045,0,0,5.246338285753154
17,23,female,45,135,25,left,change,catch,anti,1,0.5694733020245621,0,f,1,change,0.17001304123732552,0,0,0,0,0.3874408958618005,0,0,5.082089241073845
17,23,female,46,135,135,right,same,valid,anti,1,1.8565611286412604,0,j,1,same,0.1140245596106979,0.44555986143737064,0,0,0,0.38748547855175275,0,0,5.100579510821262
17,23,female,47,105,135,right,same,catch,anti,1,0.5215167608457705,0,j,1,same,0.35256440274315537,0,0,0,0,0.3875011947511666,0,0,5.53415322717774
17,23,female,48,45,355,right,change,valid,anti,3,2.2162558751315373,1,f,1,change,1.8742043272795854,0.4465007971100719,0,0,0,0.3875104961771285,0,0,7.489695625316017
17,23,female,49,45,355,left,change,valid,anti,1,0.4494550968920521,0,f,1,change,2.4884575736359693,0.446178080744767,0,0,0,0.38750023253669497,0,0,6.056227111279441
17,23,female,50,135,185,right,change,valid,clock,2,2.3774694480271137,1,f,1,change,2.0024164459446183,0.4471294617162727,0,0,0,0.38750023253669497,0,0,7.154966543737828
17,23,female,51,105,155,right,change,valid,clock,2,1.8814565517641313,1,j,0,same,1.3689762852172862,0.44679808661752907,0,0,0,0.3875175524281076,0,0,6.081052292609456
17,23,female,52,45,95,left,change,valid,clock,1,0.5533808753734775,0,j,0,same,0.7138144115633622,0.44647429237454767,0,0,0,0.3875217220338527,0,0,4.4276522370564635
17,23,female,53,135,85,right,change,valid,anti,1,1.1294937908169231,0,j,0,same,0.4817028149955149,0.44742651362501773,0,0,0,0.38746687570164795,0,0,4.763916053680077
17,23,female,54,105,55,right,change,valid,anti,1,0.24942764165280096,0,j,0,same,2.3867676651698275,0.4484291304237847,0,0,0,0.38742902852754924,0,0,5.732838069896388
17,23,female,55,75,85,left,change,catch,clock,1,0.4654772817521007,0,j,0,same,0.31946512318609166,0,0,0,0,0.38752653311530594,0,0,5.487454623480517
17,23,female,56,135,185,left,change,valid,clock,1,1.3045148473174777,0,j,0,same,0.45485248902878084,0.44950732284457806,0,0,0,0.3875210805563256,0,0,5.154046344187009
17,23,female,57,45,45,left,same,valid,clock,1,1.185451481524069,0,j,1,same,0.8093531917675136,0.45064373808173075,0,0,0,0.38753134419857815,0,0,5.252100357880408
17,23,female,58,135,135,left,same,valid,anti,1,0.8974123436964874,0,j,1,same,1.2397762911186874,0.4516865683702895,0,0,0,0.3875486640899908,0,0,5.3296723140210815
17,23,female,1,165,215,left,change,valid,clock,1,0.9198582847784564,0,j,0,same,0.3891757719065936,0.4526448590298057,0,0,0,0.38751338282418146,0,0,4.1932479997121845
17,23,female,2,75,75,left,same,valid,clock,1,0.8335336881555122,0,j,1,same,0.1690857854355272,0.453542470347442,0,0,0,0.3875422493147198,0,0,3.8251656134689256
17,23,female,3,165,165,left,same,valid,anti,1,0.8094657710789761,0,j,1,same,0.566315308027697,0.45440037662420624,0,0,0,0.3875018362286937,0,0,4.146047439831818
17,23,female,4,15,65,right,change,valid,clock,1,0.4734758653703466,0,j,0,same,1.5013403673492576,0.455237602196398,0,0,0,0.38745083876347053,0,0,4.634731134305184
17,23,female,5,135,85,right,change,valid,anti,1,0.9454506732636219,0,j,0,same,1.2754424431059306,0.4561387079991201,0,0,0,0.387460460926377,0,0,5.032152458687051
17,23,female,6,135,135,left,same,valid,clock,1,1.2572934394156619,0,j,1,same,1.261715464932422,0.457058589420386,0,0,0,0.38749093111255206,0,0,5.800097953622753
17,23,female,7,135,85,left,change,valid,anti,2,0.45746715153836703,1,j,0,same,1.2229917101849423,0.4580194978623358,0,0,0,0.3874700830911024,0,0,4.931023843078947
17,23,female,8,45,95,right,change,valid,clock,3,3.2574348852176627,1,j,0,same,0.9529482629113772,0.4576778604035032,0,0,0,0.3874845163354621,0,0,7.112918652306689
17,23,female,9,135,135,right,same,valid,clock,1,0.7934557742937614,0,j,1,same,1.3753747030768864,0.45734625877046964,0,0,0,0.3874081805079186,0,0,5.061597240619449
17,23,female,10,165,165,right,same,valid,clock,1,1.4254978346925782,0,j,1,same,0.548250337898935,0.4583147423919361,0,0,0,0.38747072456681053,0,0,5.15815147979265
17,23,female,11,75,25,left,change,valid,anti,1,0.46548369652737165,0,j,0,same,0.37415012242672674,0.45935467507036526,0,0,0,0.3874700830911024,0,0,4.0245483837661595
17,23,female,12,135,185,right,change,valid,clock,1,0.5614820953996968,0,j,0,same,0.6803026619381853,0.46046750739306214,0,0,0,0.38753583453944884,0,0,4.110698177755694
17,23,female,13,45,45,left,same,valid,anti,2,0.769485361803163,1,j,1,same,0.7850581916372903,0.46150183255757016,0,0,0,0.38750793026520114,0,0,4.542730423549074
17,23,female,14,165,215,right,change,valid,clock,2,1.9375050115431804,1,j,0,same,1.0440230008189246,0.461137503559714,0,0,0,0.3874203685809334,0,0,5.9699996985054895
17,23,female,15,15,325,right,change,valid,anti,1,0.8335083497931919,0,j,0,same,0.2658276567926805,0.4607637904919717,0,0,0,0.38749862884105823,0,0,4.385482785628483
17,23,female,16,105,155,right,change,valid,clock,2,0.5934828446443134,1,f,1,change,0.9133553060783015,0.4617631291644454,0,0,0,0.387513703564764,0,0,4.296624031929241
17,23,female,17,45,45,right,same,valid,clock,1,1.361486393299856,0,j,1,same,0.8566541428863275,0.46140943230146236,0,0,0,0.38744506546754565,0,0,5.485578301637361
17,23,female,18,165,165,right,same,valid,anti,2,1.3773674530966673,1,j,1,same,2.6737422709975363,0.4623513549279517,0,0,0,0.3874684793954657,0,0,7.04886038305267
17,23,female,19,165,165,left,same,valid,clock,1,0.42547762814865564,0,j,1,same,1.0891785302592325,0.462014120416389,0,0,0,0.38754834335122723,0,0,4.6600771954072115
17,23,female,20,105,55,right,change,valid,anti,2,0.8414880098225694,1,f,1,change,0.7997393676705542,0.4629083556276377,0,0,0,0.38754513596359175,0,0,4.786468159300057
17,23,female,21,135,135,right,same,valid,anti,2,1.6654717008968873,1,j,1,same,0.5689809680025064,0.4625843817764731,0,0,0,0.3875169109523995,0,0,4.988039330270112
17,23,female,22,135,105,left,same,catch,anti,2,0.6655534892852302,1,f,0,change,1.0230152524109144,0,0,0,0,0.3874877237230976,0,0,6.267685696526314
17,23,female,23,165,115,right,change,valid,anti,2,0.384399650778505,1,f,1,change,0.8360755429621349,0.46225552056029806,0,0,0,0.3875092132220743,0,0,4.729623946614083
17,23,female,24,75,75,left,same,valid,anti,2,0.3373886475146719,1,j,1,same,0.7901419012487167,0.4619208017352081,0,0,0,0.38744570694325375,0,0,4.233296084870744
17,23,female,25,45,95,left,change,valid,clock,2,0.7294610113149247,1,j,0,same,1.10735543822193,0.4615792356005303,0,0,0,0.3874492350696528,0,0,4.996765028696245
17,23,female,26,15,15,right,same,valid,clock,2,0.5054275415823213,1,j,1,same,1.2189026115192974,0.4612298079704045,0,0,0,0.38754994704686396,0,0,4.835577756381099
17,23,female,27,45,355,left,change,valid,anti,2,0.5374462521995156,1,f,1,change,0.8439140779319132,0.46087147503846143,0,0,0,0.3875278160721791,0,0,4.510363390620114
17,23,female,28,105,55,left,change,valid,anti,2,0.5135050269400381,1,j,0,same,1.0398290205721423,0.460503158096735,0,0,0,0.38746302683648537,0,0,4.640876168530667
17,23,female,29,15,15,left,same,valid,clock,2,0.7933739859035995,1,j,1,same,1.1532441765066324,0.4601237380693112,0,0,0,0.38743768847416504,0,0,4.9503396944401175
17,23,female,30,75,105,right,same,catch,anti,2,0.3695122397111845,1,f,0,change,0.81290441150486,0,0,0,0,0.3875069680489105,0,0,5.893291491891432
17,23,female,31,45,125,left,change,catch,anti,1,4.470382339866774,0,f,1,change,1.1545117361511075,0,0,0,0,0.3874944592371321,0,0,10.276315814795453
17,23,female,32,45,355,right,same,catch,anti,2,1.328528559542974,1,j,1,same,1.0272429102296883,0,0,0,0,0.38748676150680694,0,0,7.328610347931317
17,23,female,33,75,125,right,change,valid,clock,2,0.43257076619920554,1,f,1,change,1.341633945965441,0.4597366599823482,0,0,0,0.3874758563870273,0,0,4.849406729485054
17,23,female,34,15,15,left,same,valid,anti,2,0.7294298996548605,1,j,1,same,1.1921048867116042,0.45936300083397175,0,0,0,0.38750600583261985,0,0,5.012992807111004
17,23,female,35,165,115,left,change,valid,anti,1,0.7295235553756356,0,j,0,same,0.2763777173786366,0.4590039793821779,0,0,0,0.3875217220320337,0,0,4.084236266446169
17,23,female,36,15,95,right,same,catch,anti,2,0.7854671335753665,1,j,1,same,0.9920601115773025,0,0,0,0,0.3874611024039041,0,0,6.0648094394709915
17,23,female,37,75,85,left,change,catch,clock,1,0.6403767782558134,0,j,0,same,0.41748321413615486,0,0,0,0,0.3874566120630334,0,0,5.737317507655462
17,23,female,38,105,105,left,same,valid,anti,1,0.6645065979173523,0,j,1,same,0.6568133576147375,0.460040935944153,0,0,0,0.38742774557249504,0,0,4.455682240244641
17,23,female,39,45,355,right,change,valid,anti,2,0.4494961514556053,1,f,1,change,0.8046652738048579,0.4610564757875435,0,0,0,0.38744634842078085,0,0,4.344075409535435
17,23,female,40,15,15,right,same,valid,anti,2,0.48949933318363037,1,j,1,same,1.0760545409866609,0.4607014448992036,0,0,0,0.3875249294214882,0,0,4.797898006352625
17,23,female,41,75,75,right,same,valid,anti,2,0.2575166736060055,1,j,1,same,0.2920599191347719,0.4603360682552066,0,0,0,0.38747489417255565,0,0,3.6559399859270343
17,23,female,42,105,105,right,same,valid,anti,2,0.6736425212366157,1,j,1,same,0.013834746401698794,0.45995905531796305,0,0,0,0.38744891433088924,0,0,3.636636001900115
17,23,female,43,105,155,left,change,valid,clock,2,2.6015083703186974,1,j,0,same,0.31677348337143485,0.4595838211123638,0,0,0,0.38749991179611243,0,0,5.736114737241223
17,23,female,44,105,105,left,same,valid,clock,2,0.553447268299351,1,j,1,same,1.126193068064822,0.45922365014643807,0,0,0,0.3875005532736395,0,0,4.682364691534531
17,23,female,45,75,125,left,change,valid,clock,2,3.857297865610235,1,j,0,same,0.665210619532445,0.45887729262482224,0,0,0,0.3874546876286331,0,0,7.640754287796881
17,23,female,46,135,185,left,change,valid,clock,2,0.3693656620926049,1,j,0,same,0.9125306866826577,0.4585435801123185,0,0,0,0.3874399336455099,0,0,4.090912444087735
17,23,female,47,15,65,left,change,valid,clock,2,1.2654081304699503,1,f,1,change,1.722143356120796,0.458221417841082,0,0,0,0.3874075390285725,0,0,6.1699036693171365
17,23,female,48,105,135,right,same,catch,anti,1,1.3135048344956886,0,f,0,change,1.032633887592965,0,0,0,0,0.38748098820906307,0,0,7.203522545691158
17,23,female,49,135,135,left,same,valid,anti,2,0.4961338147822971,1,f,0,change,0.9519963102211477,0.45790977769303987,0,0,0,0.38753840044955723,0,0,4.09457848830607
17,23,female,50,105,105,right,same,valid,clock,2,0.4814930518350593,1,j,1,same,0.7120914028528205,0.4576076917858254,0,0,0,0.3874784222989547,0,0,4.358195613447606
17,23,female,51,135,325,right,change,catch,clock,1,1.1934439711058076,0,j,0,same,1.1637785208931746,0,0,0,0,0.38742389670733246,0,0,6.923019806901721
17,23,female,52,45,45,left,same,valid,clock,2,0.9764677166785987,1,j,1,same,1.0728692841948941,0.4573142465980757,0,0,0,0.3874200478421699,0,0,5.020532413540423
17,23,female,53,75,25,right,change,valid,anti,2,0.6335123269545875,1,j,0,same,0.41310801648069173,0.4570285775766091,0,0,0,0.3875249294214882,0,0,4.204052085411604
17,23,female,54,15,325,left,change,valid,anti,1,2.11352741450537,0,j,0,same,0.45607354155254143,0.4567498641738867,0,0,0,0.3876602811851626,0,0,5.5985675164738495
17,23,female,55,135,25,left,change,catch,anti,2,3.345498527487507,1,f,1,change,0.8533954369140702,0,0,0,0,0.38744698989830795,0,0,8.809855147954295
17,23,female,56,75,75,right,same,valid,clock,2,0.6402600293404248,1,j,1,same,1.1999427802020364,0.45756793713308164,0,0,0,0.3874691208748118,0,0,4.909498743023505
17,23,female,57,45,45,right,same,valid,anti,2,0.5134354266247101,1,j,1,same,0.796183016112991,0.457279103436743,0,0,0,0.38743897142921924,0,0,4.497650588458782
17,23,female,58,105,165,left,change,catch,clock,2,0.441498530055469,1,j,0,same,1.0812675083288923,0,0,0,0,0.3875018362305127,0,0,6.0646333538825274
17,23,female,1,105,105,right,same,valid,anti,2,1.0085428773218155,1,j,1,same,0.9547177787426335,0.4569978435210845,0,0,0,0.3875011947511666,0,0,5.28148933126613
17,23,female,2,45,355,left,change,valid,anti,1,0.40944421743188286,0,j,0,same,0.2699311887026852,0.45672335988026425,0,0,0,0.3874845163372811,0,0,3.839796754251438
17,23,female,3,135,135,right,same,valid,anti,2,0.45744662425568094,1,f,0,change,0.8451409037515987,0.4575292103111141,0,0,0,0.38741459528318956,0,0,4.169051787122953
17,23,female,4,15,15,left,same,valid,clock,2,0.4894486564571707,1,j,1,same,0.6872905976706534,0.4572448619902481,0,0,0,0.3875095339590189,0,0,4.31446416417748
17,23,female,5,135,185,left,change,valid,clock,1,0.5934899008971115,0,j,0,same,0.6567601149781694,0.4569678929684414,0,0,0,0.3875181939074537,0,0,4.351741066302566
17,23,female,6,45,125,left,change,catch,anti,1,0.4894977294898126,0,j,0,same,0.2997823466648697,0,0,0,0,0.3874944592389511,0,0,5.409472121706131
17,23,female,7,105,155,left,change,valid,clock,2,0.6403963433222088,1,j,0,same,0.9441298709789407,0.45777944102074647,0,0,0,0.38747938451524533,0,0,4.7115644290424825
17,23,female,8,75,75,left,same,valid,anti,2,0.2654581657207018,1,j,1,same,0.8646633108837705,0.4574914715240149,0,0,0,0.38745308393663436,0,0,4.342959880070339
17,23,female,9,135,105,left,same,catch,anti,2,0.43311602212088474,1,j,1,same,1.123321814535302,0,0,0,0,0.3874585364956147,0,0,6.283203680028237
17,23,female,10,75,25,right,change,valid,anti,1,0.4721730244564242,0,j,0,same,0.3619068818352389,0.4572114876100066,0,0,0,0.38746623422593984,0,0,4.276535200118815
17,23,female,11,165,165,left,same,valid,clock,1,0.5535194345247874,0,j,1,same,0.18228418610306107,0.4580303190699104,0,0,0,0.38743832995169214,0,0,3.5446147638631373
17,23,female,12,135,25,left,change,catch,anti,2,0.8094875813148974,1,j,0,same,0.6469018879324722,0,0,0,0,0.3874979873653501,0,0,5.861941200884758
17,23,female,13,105,155,right,change,valid,clock,1,0.2964787372657156,0,j,0,same,1.7320615613170958,0.4589071577701312,0,0,0,0.38751723169116303,0,0,5.095375203429285
17,23,female,14,135,85,right,change,valid,anti,1,0.22550694367237156,0,j,0,same,0.9134621120902011,0.4598614562342469,0,0,0,0.38750664731196593,0,0,4.064472343017769
17,23,female,15,75,105,right,same,catch,anti,1,0.6174917457865376,0,j,1,same,1.1187083079676086,0,0,0,0,0.38748098820906307,0,0,6.329730047000339
17,23,female,16,75,25,left,change,valid,anti,2,1.5680136198498076,1,j,0,same,2.1911301615673437,0.46082712172917417,0,0,0,0.38752268425014336,0,0,7.248237700789105
17,23,female,17,45,45,right,same,valid,anti,1,2.489458278620077,0,j,1,same,0.9554092915459478,0.46049046866050736,0,0,0,0.3874989495816408,0,0,6.792275776331735
17,23,female,18,105,165,left,change,catch,clock,2,1.5774901677523303,1,j,0,same,0.7775984491636336,0,0,0,0,0.38750279844498436,0,0,7.016563591916565
17,23,female,19,75,75,left,same,valid,clock,2,0.46448748188777245,1,j,1,same,0.8353756909509684,0.4613931649548745,0,0,0,0.38745821575685113,0,0,4.59935204352405
17,23,female,20,15,15,right,same,valid,anti,1,0.7935385248965758,0,j,1,same,0.34121089151994966,0.461075796033052,0,0,0,0.38739663391061185,0,0,4.204317015641209
17,23,female,21,45,95,left,change,valid,clock,2,0.36951576783940254,1,j,0,same,0.6594514340540627,0.4619239323414246,0,0,0,0.38742774557067605,0,0,3.766367139412978
17,23,female,22,75,75,right,same,valid,clock,1,1.969489403110856,0,j,1,same,0.8523042835950037,0.46162291499838226,0,0,0,0.3875441737473011,0,0,5.966142493974985
17,23,female,23,15,15,right,same,valid,clock,1,0.2973838620928291,0,j,1,same,0.2581283224517392,0.46242452700737446,0,0,0,0.38741042567744444,0,0,3.4694942141941283
17,23,female,24,105,105,right,same,valid,clock,2,0.9135618618493027,1,j,1,same,0.202706265503366,0.46317172526026223,0,0,0,0.38744506546572666,0,0,4.029158682944399
17,23,female,25,45,355,right,same,catch,anti,1,0.809524787013288,0,j,1,same,0.6459249176186859,0,0,0,0,0.38666374580679985,0,0,5.706090380339447
17,23,female,26,15,65,left,change,valid,clock,2,0.3604298797672527,1,j,0,same,0.8441591223563591,0.4628995170440411,0,0,0,0.38743640551911085,0,0,4.460056475683814
17,23,female,27,165,115,right,change,valid,anti,1,1.4573892120151868,0,j,0,same,0.24861681402398972,0.4626235205257203,0,0,0,0.38744506546572666,0,0,4.717422722802439
17,23,female,28,135,185,right,change,valid,clock,2,0.4815235220194154,1,j,0,same,0.30432112109883747,0.4633530215062879,0,0,0,0.38745115950405307,0,0,3.8526574169882224
17,23,female,29,45,45,right,same,valid,clock,2,0.25739030252771045,1,j,1,same,1.9442424502904032,0.46308613904284046,0,0,0,0.3874149160201341,0,0,5.046312113470776
17,23,female,30,165,165,right,same,valid,anti,1,0.5375312479736749,0,j,1,same,0.047711817491290276,0.4628159628715795,0,0,0,0.3875281368091237,0,0,3.4622731013696466
17,23,female,31,45,45,left,same,valid,anti,1,0.40947340466118476,0,j,1,same,0.34347723171595135,0.4635289848108072,0,0,0,0.38746687570346694,0,0,3.613886000457569
17,23,female,32,45,95,right,change,valid,clock,2,0.9934806636210851,1,j,0,same,0.5291134587751003,0.4642102355236039,0,0,0,0.38746430979335855,0,0,4.361070715844107
17,23,female,33,135,85,left,change,valid,anti,1,0.32149668259808095,0,j,0,same,0.35545490060030716,0.4639556242558106,0,0,0,0.3874976666247676,0,0,3.463548358748085
17,23,female,34,105,105,left,same,valid,anti,2,1.2095072105294093,1,j,1,same,0.898003465261354,0.464620550090805,0,0,0,0.38751466578105465,0,0,4.943177597551767
17,23,female,35,75,125,left,change,valid,clock,2,0.5932689118799317,1,j,0,same,1.9586747330340586,0.4643693389543005,0,0,0,0.38743897142921924,0,0,5.540356956598771
17,23,female,36,165,165,right,same,valid,clock,2,0.5134572368606314,1,j,1,same,0.7212388727693906,0.46411811620526444,0,0,0,0.38748547855175275,0,0,4.105397969466139
17,23,female,37,105,135,right,same,catch,anti,2,0.7294783312081563,1,j,1,same,0.5339765001117485,0,0,0,0,0.38753840044955723,0,0,5.674958833178607
17,23,female,38,165,215,left,change,valid,clock,2,0.5282779342633148,1,j,0,same,1.0787535577946983,0.4638662369189202,0,0,0,0.3874832333822269,0,0,4.865655676660026
17,23,female,39,165,215,right,change,valid,clock,2,0.4334341949888767,1,f,1,change,0.8391546352195292,0.463613059621147,0,0,0,0.38747425269502855,0,0,4.3167843884875765
17,23,female,40,135,325,right,change,catch,clock,1,1.401542176186922,0,j,0,same,0.35110632426221855,0,0,0,0,0.38749542145524174,0,0,6.408220919736777
17,23,female,41,105,55,left,change,valid,anti,2,0.7284298361482797,1,f,1,change,0.8125451840751339,0.46335794345615666,0,0,0,0.3875380797107937,0,0,4.6373692107445095
17,23,female,42,105,105,left,same,valid,clock,2,0.7295001414458966,1,j,1,same,1.0959794752852758,0.463100245399193,0,0,0,0.3874466691595444,0,0,4.706559621168708
17,23,female,43,15,95,right,same,catch,anti,2,0.7295075184374582,1,j,1,same,1.1617203401619918,0,0,0,0,0.3874983081022947,0,0,6.704617547875387
17,23,female,44,15,65,right,change,valid,clock,2,0.552203764062142,1,j,0,same,0.9744181958958507,0.4628393174949628,0,0,0,0.38750953396083787,0,0,5.10852388958665
17,23,female,45,45,355,right,change,valid,anti,2,0.5453781221513054,1,j,0,same,0.9302765217289561,0.4625745041030984,0,0,0,0.38743448108652956,0,0,4.66168762480811
17,23,female,46,135,135,left,same,valid,anti,2,0.7374846125585464,1,j,1,same,0.3157297993911925,0.4623051391323665,0,0,0,0.3874870822473895,0,0,4.292182441349723
17,23,female,47,135,135,right,same,valid,clock,2,0.6974762990084855,1,j,1,same,0.7260849149497517,0.4620305432455843,0,0,0,0.3874851578129892,0,0,4.280969734447353
17,23,female,48,75,75,right,same,valid,anti,2,0.6492958821636421,1,j,1,same,1.3349760504352162,0.4617500210172887,0,0,0,0.3875050436181482,0,0,5.085395737125509
17,23,female,49,165,115,left,change,valid,anti,2,0.6494155177279026,1,j,0,same,0.625761995150242,0.46146285802612985,0,0,0,0.38744698989830795,0,0,4.462477411971122
17,23,female,50,15,325,right,change,valid,anti,2,0.5694951122604834,1,j,0,same,0.4609247155531193,0.4611683178637368,0,0,0,0.38749349702266045,0,0,4.055971161735215
17,23,female,51,75,125,right,change,valid,clock,2,0.5855330133199459,1,j,0,same,0.5143309292889171,0.46086563904142014,0,0,0,0.3874546876286331,0,0,3.9982497284945566
17,23,female,52,75,85,left,change,catch,clock,2,1.1375244483115239,1,j,0,same,0.13737305960967205,0,0,0,0,0.3874646305303031,0,0,5.706057344244982
17,23,female,53,15,15,left,same,valid,anti,2,0.6164663439176366,1,j,1,same,0.7744981881478452,0.4605540317755456,0,0,0,0.3874428202943818,0,0,4.1483567590257735
17,23,female,54,165,165,left,same,valid,anti,2,0.44932615990364866,1,j,1,same,2.4999486817960133,0.46023267463172335,0,0,0,0.3874447447269631,0,0,5.925902286289784
17,23,female,55,15,325,left,change,valid,anti,1,0.4895368596207845,0,j,0,same,0.09767041011582478,0.4599006370652319,0,0,0,0.3874460276820173,0,0,3.644709638392669
17,23,female,56,45,45,left,same,valid,clock,1,0.3374531160079641,0,j,1,same,0.6860021900047286,0.4607939590218717,0,0,0,0.3875124206097098,0,0,3.6325379225490906
17,23,female,57,135,135,left,same,valid,clock,2,0.29746244309171743,1,j,1,same,0.9590217723889509,0.4616030665210686,0,0,0,0.38745436689168855,0,0,4.420621001590916
17,23,female,58,105,55,right,change,valid,anti,2,0.7694597027002601,1,f,1,change,1.6694039582998812,0.4613176439394934,0,0,0,0.3875274953315966,0,0,5.820460054870637
17,23,female,1,105,135,right,same,catch,anti,1,0.32836305833370716,0,j,1,same,0.20070293110256898,0,0,0,0,0.38739919982072024,0,0,4.869848373949935
17,23,female,2,45,45,right,same,valid,anti,2,0.408284426015598,1,j,1,same,0.7393115406302968,0.4610245583326822,0,0,0,0.38746687570164795,0,0,4.5264218189622625
17,23,female,3,165,115,left,change,valid,anti,2,0.7135308784854715,1,j,0,same,0.12221237910489435,0.46072305977495204,0,0,0,0.38747874303771823,0,0,3.9452598336902156
17,23,female,4,75,125,left,change,valid,clock,1,0.9135352405319281,0,j,0,same,0.1303379752789624,0.46041236924643075,0,0,0,0.38752268425014336,0,0,3.837345347779774
17,23,female,5,75,25,right,change,valid,anti,2,0.3374893594900641,1,j,0,same,0.25130460497530294,0.4612463950883181,0,0,0,0.38752717459283303,0,0,3.5341192288669845
17,23,female,6,75,25,left,change,valid,anti,2,1.1534266768703674,1,j,0,same,0.26028496998878836,0.46095392003603375,0,0,0,0.38742902852754924,0,0,4.3037543756781815
17,23,female,7,135,25,left,change,catch,anti,2,0.8014800170130911,1,j,0,same,0.24532860008366697,0,0,0,0,0.38746495127088565,0,0,5.814825316039787
17,23,female,8,135,135,left,same,valid,anti,2,1.264365087969054,1,j,1,same,1.3538887331524165,0.4606529001401453,0,0,0,0.3875063265713834,0,0,5.887835404557336
17,23,female,9,135,325,right,change,catch,clock,2,1.1935555881991604,1,j,0,same,0.032175231141081895,0,0,0,0,0.3875108169140731,0,0,6.236426174593362
17,23,female,10,105,55,left,change,valid,anti,1,0.4001540187618957,0,j,0,same,1.4833273569020093,0.4603425612419315,0,0,0,0.38749477997589565,0,0,4.9644178815724445
17,23,female,11,105,165,left,change,catch,clock,1,1.4495420171006117,0,j,0,same,0.05715115969542239,0,0,0,0,0.38746944161175634,0,0,6.033672119012408
17,23,female,12,45,355,right,change,valid,anti,2,0.5682365333013877,1,j,0,same,1.1513393089098827,0.4611759911677338,0,0,0,0.38750408140003856,0,0,4.683811864897507
17,23,female,13,105,105,left,same,valid,clock,2,0.2254681342819822,1,j,1,same,0.6416189995379682,0.46088405274609107,0,0,0,0.38748804446186114,0,0,3.9785768948768236
17,23,female,14,75,85,left,change,catch,clock,2,1.0333619646153238,1,f,1,change,1.680807825514421,0,0,0,0,0.3874203685809334,0,0,7.515808893573194
17,23,female,15,165,165,right,same,valid,anti,2,1.0798004491625761,1,j,1,same,1.5882175968836236,0.46058344079936436,0,0,0,0.38752589163777884,0,0,5.693994679584648
17,23,female,16,15,325,right,change,valid,anti,2,0.44940442016559246,1,f,1,change,0.9707062860325095,0.46027338570867277,0,0,0,0.3874495558102353,0,0,4.9753457724382315
17,23,female,17,165,165,right,same,valid,clock,2,0.24144894383971405,1,j,1,same,1.1268117731651728,0.4599527445878077,0,0,0,0.387493817759605,0,0,4.701317466600813
17,23,female,18,45,125,left,change,catch,anti,2,0.4974741821333737,1,j,0,same,0.9876416141887603,0,0,0,0,0.38742453818304057,0,0,5.987043115630513
17,23,female,19,105,155,right,change,valid,clock,2,1.1204912948287529,1,f,1,change,2.832536832038386,0.45963309229188937,0,0,0,0.3874684793972847,0,0,6.860213060353999
17,23,female,20,165,165,left,same,valid,clock,2,0.4334819850664644,1,j,1,same,0.7952438929733034,0.45932605065169846,0,0,0,0.3874877237230976,0,0,4.235093184237485
17,23,female,21,45,355,right,same,catch,anti,2,0.3374117407074664,1,j,1,same,1.3151713931802078,0,0,0,0,0.3874944592371321,0,0,6.252119922944985
17,23,female,22,135,85,right,change,valid,anti,2,0.37580224786506733,1,j,0,same,1.0893154857167247,0.45903070896013975,0,0,0,0.38748547855357174,0,0,5.021567116835286
17,23,female,23,75,75,left,same,valid,clock,2,0.2574047357720701,1,j,1,same,1.1514717740246851,0.4587462116928433,0,0,0,0.3874976666265866,0,0,4.380936954945355
17,23,female,24,165,115,right,change,valid,anti,2,0.48947142891120166,1,f,1,change,0.9460305689717643,0.4584717538706151,0,0,0,0.3873975961269025,0,0,4.379744127434606
17,23,female,25,45,95,right,change,valid,clock,1,0.6494588174628007,0,j,0,same,0.4103903968243685,0.4582065767955527,0,0,0,0.38753262715181336,0,0,4.106356016192876
17,23,female,26,135,135,left,same,valid,clock,2,0.857480365975789,1,j,1,same,0.28243390696479764,0.4589768443903609,0,0,0,0.38743704699663795,0,0,4.058971672991902
17,23,female,27,165,215,left,change,valid,clock,2,0.2495273914119025,1,j,0,same,0.7168835609190864,0.45869655812164467,0,0,0,0.38756854989514977,0,0,3.8175137484668085
17,23,female,28,15,15,left,same,valid,anti,2,0.44145170219235297,1,j,1,same,0.3218222324576345,0.458426086365303,0,0,0,0.38751787316687114,0,0,3.9300285906556383
17,23,female,29,45,95,left,change,valid,clock,2,1.1454543938325514,1,j,0,same,1.8117770147055126,0.4581646899496721,0,0,0,0.38742902852754924,0,0,5.8607929560621415
17,23,female,30,75,75,right,same,valid,anti,2,0.46543077462956717,1,f,0,change,2.947221792786877,0.4579116706046083,0,0,0,0.3874149160219531,0,0,6.730114676942321
17,23,female,31,45,45,left,same,valid,anti,1,1.1214695480975934,0,f,0,change,0.5311559233068692,0.457666367480873,0,0,0,0.3875374382332666,0,0,4.869314664625563
17,23,female,32,15,325,left,change,valid,anti,1,1.113431513611431,0,f,1,change,0.8422257090096537,0.4583814069045727,0,0,0,0.3874659134871763,0,0,5.257241800472912
17,23,female,33,135,135,right,same,valid,clock,2,0.44948332190324436,1,j,1,same,1.1220959509300883,0.4591549590193759,0,0,0,0.38736071116727544,0,0,4.622476988595736
17,23,female,34,45,45,left,same,valid,clock,2,0.6574923616062733,1,j,1,same,3.017464226400989,0.45887265053496445,0,0,0,0.3874745734337921,0,0,6.819770466501723
17,23,female,35,45,45,right,same,valid,clock,2,0.48947142891120166,1,j,1,same,1.410218160101067,0.45860047319677966,0,0,0,0.38748676150680694,0,0,5.025521505214783
17,23,female,36,105,55,right,change,valid,anti,1,0.6894956767609983,0,j,0,same,0.3054263869216811,0.458337683040652,0,0,0,0.3874931762820779,0,0,3.817081713334119
17,23,female,37,135,85,left,change,valid,anti,2,0.3934547479293542,1,j,0,same,0.4582096618069045,0.4591004242189087,0,0,0,0.38750600583443884,0,0,3.5856051795472013
17,23,female,38,105,105,left,same,valid,anti,2,0.48956283946245094,1,j,1,same,0.1869320117184543,0.4588222431644121,0,0,0,0.38750600583261985,0,0,3.684421268571896
17,23,female,39,15,15,right,same,valid,clock,2,0.4174524232130352,1,j,1,same,0.36456035373521445,0.4585539713766858,0,0,0,0.38747489417073666,0,0,3.4333831975218345
17,23,female,40,105,155,left,change,valid,clock,2,0.345418342794801,1,j,0,same,0.8733813115777593,0.4582948837169679,0,0,0,0.3874832333804079,0,0,4.008471994051433
17,23,female,41,135,105,left,same,catch,anti,2,0.3215050218059332,1,j,1,same,0.5076509027821885,0,0,0,0,0.38756502176875074,0,0,5.40964147178056
17,23,female,42,165,165,left,same,valid,anti,2,0.36018130721640773,1,j,1,same,1.7132582505237224,0.4580442953203218,0,0,0,0.3874498765489989,0,0,5.087320490525599
17,23,female,43,105,105,right,same,valid,clock,2,0.37746656138006074,1,f,0,change,0.8921653780453198,0.4578015582380632,0,0,0,0.3874514802409976,0,0,4.104488354296336
17,23,female,44,75,125,right,change,valid,clock,2,0.8974720011083264,1,j,0,same,0.6684462323137268,0.4575660583345911,0,0,0,0.3874707245686295,0,0,4.800319904856224
17,23,female,45,75,75,left,same,valid,anti,2,0.5934671284448996,1,j,1,same,0.6452318011215539,0.45733721241496034,0,0,0,0.38743640551911085,0,0,4.001729423485813
17,23,female,46,15,65,left,change,valid,clock,2,0.3854263356042793,1,j,0,same,1.1252388702032476,0.4571144655616847,0,0,0,0.38747810156019113,0,0,4.622954247895905
17,23,female,47,75,75,right,same,valid,clock,2,1.8255190676009079,1,j,1,same,0.15934879764608922,0.4568972886611926,0,0,0,0.3874832333804079,0,0,5.212305977096548
17,23,female,48,165,215,right,change,valid,clock,1,2.537538945705819,0,j,0,same,0.30060119276276964,0.45668517610208886,0,0,0,0.3875541166507901,0,0,5.776644572042642
17,23,female,49,15,15,left,same,valid,clock,1,0.5214526130912418,0,j,1,same,0.08327148420721642,0.4573081209427022,0,0,0,0.3875063265713834,0,0,3.275552135766702
17,23,female,50,75,105,right,same,catch,anti,1,0.3854394858954038,0,j,1,same,1.1595787673504674,0,0,0,0,0.3874684793972847,0,0,5.752752099073405
17,23,female,51,45,355,left,change,valid,anti,2,0.26368544249999104,1,j,0,same,1.2565862104129337,0.45796814375681205,0,0,0,0.387483874857935,0,0,5.064555414359347
17,23,female,52,15,95,right,same,catch,anti,2,0.6814393601653137,1,j,1,same,0.774523205769583,0,0,0,0,0.38748291264164436,0,0,5.908680538404951
17,23,female,53,135,185,left,change,valid,clock,2,0.5356113056568574,1,j,0,same,0.4788286748153041,0.4577318750246473,0,0,0,0.38747296973815537,0,0,4.0066296705172135
17,23,female,54,105,105,right,same,valid,anti,2,0.505534989071748,1,j,1,same,1.0065360147946194,0.45750254909730576,0,0,0,0.38745308393481537,0,0,4.396127464155143
17,23,female,55,135,135,right,same,valid,anti,2,0.6415702472440898,1,j,1,same,0.07698757008984103,0.457279609275674,0,0,0,0.3874627060977218,0,0,3.9080390608523885
17,23,female,56,15,65,right,change,valid,clock,2,1.2094020082095085,1,j,0,same,3.3147996569368843,0.4570625253729774,0,0,0,0.3874665549647034,0,0,7.141981113616566
17,23,female,57,135,185,right,change,valid,clock,2,0.6094893133031292,1,j,0,same,1.269764404538364,0.4568507914109123,0,0,0,0.38757496467042074,0,0,5.516580911807978
17,23,female,58,15,15,right,same,valid,anti,2,0.36150916575206793,1,j,1,same,0.5730658970642253,0.4566439234734776,0,0,0,0.38749959105916787,0,0,3.984541353171153
