subject,age,gender,ntrial,memory_ori,test_ori,cue,type,trial_type,which_change,pas,pas_rt,vis,test_key,test_acc,test,test_rt,contrast,fix_dur,cue_dur,jitter_dur,target_dur,mask_dur,retention_dur,trial_dur
18,23,female,1,15,325,left,change,valid,anti,2,1.0883735505103687,1,f,0,same,0.9727393032699183,0.5,0,0,0,0.3874791440939589,0,0,4.944374310015519
18,23,female,2,75,25,left,change,valid,anti,2,0.9373912301607561,1,f,0,same,0.9366548186526416,0.4069419370673367,0,0,0,0.387445146002392,0,0,4.783894654665346
18,23,female,3,45,45,right,same,valid,clock,1,0.8253575733324396,0,f,1,same,1.1741321345480173,0.3461892688284379,0,0,0,0.3873819608688791,0,0,5.088723474271319
18,23,female,4,15,65,left,change,valid,clock,1,1.3134159037936115,0,f,0,same,1.3568218455066017,0.4454881356006881,0,0,0,0.3873967147574149,0,0,6.026221189022181
18,23,female,5,165,215,left,change,valid,clock,1,0.6654327925070902,0,j,1,change,1.5033850553372758,0.5153337022544097,0,0,0,0.38738388528872747,0,0,5.427351850104969
18,23,female,6,135,135,right,same,valid,clock,1,1.0734368414869095,0,f,1,same,1.1769337697915034,0.5757778128929544,0,0,0,0.3874409764257507,0,0,5.404501604004508
18,23,female,7,45,45,left,same,catch,clock,1,1.369362330498916,0,f,1,same,1.36424080656343,0,0,0,0,0.38739126223390485,0,0,7.577769673830517
18,23,female,8,165,325,right,change,catch,clock,1,0.8723695579801642,0,j,1,change,1.1055775474032998,0,0,0,0,0.38740088433496567,0,0,6.314406980257445
18,23,female,9,45,95,right,change,valid,clock,2,2.047806449501877,1,f,0,same,0.9901334970372773,0.6311936474553376,0,0,0,0.387421411485775,0,0,6.759904831000313
18,23,female,10,165,165,left,same,valid,anti,2,1.457403277031517,1,f,1,same,1.1876033974995153,0.6112417806147936,0,0,0,0.38743167506072496,0,0,5.2756966241177
18,23,female,11,75,125,right,change,valid,clock,2,1.2734286947743385,1,f,0,same,1.8241294724330146,0.5951778159274247,0,0,0,0.3874031294926681,0,0,6.577104465874072
18,23,female,12,15,155,right,same,catch,anti,2,2.7534291566353204,1,f,1,same,1.4587667288251396,0,0,0,0,0.38750287861239485,0,0,9.137444023423996
18,23,female,13,135,85,right,change,valid,anti,2,1.256444081797781,1,j,1,change,1.2498676961031379,0.5821431359954561,0,0,0,0.38742205295875465,0,0,6.025822834017163
18,23,female,14,15,75,left,change,catch,anti,2,1.041424750996157,1,f,0,same,1.3521477492940903,0,0,0,0,0.3874467496862053,0,0,7.421993943207781
18,23,female,15,45,45,left,same,valid,clock,1,0.8081670473811755,0,f,1,same,2.2177529698619765,0.5703051835211407,0,0,0,0.3874759367281513,0,0,5.871938808565574
18,23,female,16,105,15,right,change,catch,clock,1,1.1050900275895401,0,f,0,same,2.319830958919738,0,0,0,0,0.3874072990693094,0,0,7.592957198968179
18,23,female,17,105,105,right,same,valid,clock,3,2.0084084338368484,1,f,1,same,1.1006253724553972,0.5974341951784733,0,0,0,0.3874791440948684,0,0,5.998218628260474
18,23,female,18,105,105,right,same,valid,anti,3,1.153456483404625,1,f,1,same,1.1855506824958866,0.5879786307376005,0,0,0,0.38741563822441094,0,0,5.429816711794047
18,23,female,19,45,45,left,same,valid,anti,2,1.0013573577962234,1,j,0,change,1.3561598449177836,0.5794384388974229,0,0,0,0.38746150357565057,0,0,5.919721523550834
18,23,female,20,105,155,right,change,valid,clock,2,0.8974133225055994,1,f,0,same,1.539025319598295,0.5715963254520054,0,0,0,0.3874631072585544,0,0,5.87094773210265
18,23,female,21,165,115,left,change,valid,anti,3,0.9693654737184261,1,f,0,same,1.8148556909281979,0.5642578944169339,0,0,0,0.38743808979506866,0,0,6.099885112106676
18,23,female,22,15,325,right,change,valid,anti,2,0.8254047216296385,1,j,1,change,1.2823955312387625,0.5573099499808919,0,0,0,0.3874121101207493,0,0,5.183007240310872
18,23,female,23,45,355,left,change,valid,anti,2,1.2413922282930798,1,f,0,same,1.4065735632111682,0.5511177736580458,0,0,0,0.3874733708335043,0,0,5.922140199151727
18,23,female,24,45,355,right,change,valid,anti,2,1.9451293242527754,1,f,0,same,0.6366967068679514,0.5451184280806167,0,0,0,0.3874101856999914,0,0,6.089310101730916
18,23,female,25,105,55,left,change,valid,anti,1,1.4413969110491962,0,f,0,same,2.330494171893406,0.5396581673957861,0,0,0,0.38738324381574785,0,0,6.635558412251157
18,23,female,26,165,115,right,change,valid,anti,2,0.5534219079854665,1,f,0,same,1.433691532101875,0.5540740031754491,0,0,0,0.38743327874362876,0,0,4.940736193407247
18,23,female,27,75,75,right,same,valid,clock,3,0.5774428431132037,1,f,1,same,0.9620218857908185,0.5489139623663561,0,0,0,0.3874967846140862,0,0,4.481834434422126
18,23,female,28,165,115,left,change,catch,clock,1,0.6974028664881189,0,j,1,change,1.4546722038649023,0,0,0,0,0.38744129716178577,0,0,6.735291815889468
18,23,female,29,75,75,right,same,valid,anti,2,1.4805117161913586,1,f,1,same,1.1559803606496644,0.5441975442352976,0,0,0,0.38744225937261945,0,0,6.087249047572186
18,23,female,30,75,25,right,change,valid,anti,1,1.0414144874202975,0,f,0,same,0.8729193007175127,0.5395022789250847,0,0,0,0.3873947903375665,0,0,5.392979778833251
18,23,female,31,45,355,right,same,catch,clock,1,0.9214079572220726,0,f,1,same,1.1989221963276577,0,0,0,0,0.38742429811554757,0,0,6.626362890504424
18,23,female,32,165,165,right,same,valid,anti,2,0.9602674559355364,1,f,1,same,0.9359225767220778,0.5513570706432541,0,0,0,0.3874653524153473,0,0,5.627417472838715
18,23,female,33,15,15,right,same,valid,clock,2,1.193398147809603,1,f,1,same,1.0797402802336364,0.5471508498221908,0,0,0,0.3874233359056234,0,0,5.240808487463255
18,23,female,34,135,135,left,same,valid,clock,2,1.1054348195630155,1,j,0,change,1.4299927962529182,0.5432748641783721,0,0,0,0.3874525229466599,0,0,6.046133807510159
18,23,female,35,15,15,right,same,valid,anti,1,1.233451749330925,0,f,1,same,0.953440574862725,0.5393443190899005,0,0,0,0.38739062076092523,0,0,5.6963482841547375
18,23,female,36,135,135,right,same,valid,anti,1,1.4895077396977285,0,j,0,change,1.0256570131323315,0.5493977424838873,0,0,0,0.38748331367241917,0,0,5.353354360832782
18,23,female,37,105,105,left,same,valid,clock,1,0.8733705772810936,0,j,0,change,1.2553285594876797,0.5590542742441503,0,0,0,0.3874149967505218,0,0,5.585272988643737
18,23,female,38,75,75,left,same,valid,anti,1,2.9294084139510232,0,f,1,same,1.6153892043876112,0.568433844281371,0,0,0,0.3874897284067629,0,0,7.607149157328422
18,23,female,39,105,155,left,change,valid,clock,2,1.2414425839579053,1,f,0,same,1.2212987142947895,0.5776176579919996,0,0,0,0.38738709265635407,0,0,5.641076046034868
18,23,female,40,45,45,right,same,valid,anti,1,1.9453814233147568,0,f,1,same,1.0473801904017819,0.5744456318030201,0,0,0,0.3873765083444596,0,0,6.568522834209034
18,23,female,41,75,75,left,same,valid,clock,2,0.9293744158585469,1,f,1,same,0.9329717989030542,0.582740984202876,0,0,0,0.3873829230797128,0,0,5.13522580827248
18,23,female,42,15,15,left,same,valid,anti,1,1.6652874987739779,0,j,0,change,1.0182425423899986,0.5795837961133234,0,0,0,0.38743327874362876,0,0,5.56168889692799
18,23,female,43,15,65,right,change,valid,clock,1,0.8813421677059523,0,f,0,same,1.3954183401101545,0.5877057525513706,0,0,0,0.3873511701440293,0,0,5.638768024601632
18,23,female,44,105,105,left,same,valid,anti,2,2.3853741490056564,1,f,1,same,1.499540063544373,0.5958261774834678,0,0,0,0.38747369157044886,0,0,6.942045761432382
18,23,female,45,165,165,right,same,valid,clock,1,1.6092778869351605,0,f,1,same,1.4819152600757661,0.5930659490919853,0,0,0,0.387445146002392,0,0,5.774660323777425
18,23,female,46,15,15,left,same,valid,clock,2,1.5693981247159172,1,f,1,same,1.5016569258923482,0.6004674045166758,0,0,0,0.38735822635135264,0,0,6.385453370974574
18,23,female,47,75,215,left,change,catch,anti,1,1.985422516102517,0,f,0,same,0.5917367957499664,0,0,0,0,0.3874505985268115,0,0,7.405676141870572
18,23,female,48,135,85,left,change,valid,anti,1,1.5841478442325752,0,j,1,change,1.1843354110660584,0.5977052881260503,0,0,0,0.3874961431411066,0,0,6.13633780247892
18,23,female,49,105,185,left,same,catch,clock,1,2.3054824810396894,0,f,1,same,0.9455482064086027,0,0,0,0,0.3873989599142078,0,0,8.138943788324468
18,23,female,50,135,185,left,change,valid,clock,2,1.176147323355508,1,f,0,same,1.3659756714787363,0.6051000119795004,0,0,0,0.3875503476465383,0,0,5.570912643505835
18,23,female,51,105,55,right,change,valid,anti,1,0.8014476131093033,0,j,1,change,1.1504909516961561,0.6025983370074315,0,0,0,0.38746727683610516,0,0,5.512772056903486
18,23,female,52,75,75,right,same,catch,anti,1,1.0412679107403164,0,j,0,change,1.4668958009788184,0,0,0,0,0.38744803263307404,0,0,7.421963473219876
18,23,female,53,165,165,left,same,valid,clock,2,1.1364343442319296,1,f,1,same,0.9218662899938863,0.6093592881576978,0,0,0,0.3874829929354746,0,0,5.065189738220397
18,23,female,54,165,215,right,change,valid,clock,1,0.769359828751476,0,f,0,same,1.4050802130459488,0.606874477981128,0,0,0,0.38743424095446244,0,0,5.090339987336847
18,23,female,55,75,125,left,change,valid,clock,1,1.6974705419361271,0,f,0,same,1.0380188477729462,0.6137196789974297,0,0,0,0.38747401230648393,0,0,5.843610379296479
18,23,female,56,135,185,right,change,valid,clock,1,0.8011714587937604,0,f,0,same,1.3591391683039546,0.6200992359148516,0,0,0,0.38740826128014305,0,0,5.4479787492673495
18,23,female,57,135,135,left,same,valid,anti,2,0.8494420143297248,1,f,1,same,0.8089307215104782,0.62661147930584,0,0,0,0.3874393727419374,0,0,4.794305447841907
18,23,female,58,45,95,left,change,valid,clock,2,0.905501340358569,1,f,0,same,1.0662096809892319,0.624341271080989,0,0,0,0.38736528255867597,0,0,4.884028658467287
18,23,female,1,165,165,right,same,valid,anti,1,1.0467419243304903,0,f,1,same,1.4743436283406481,0.6220070581645519,0,0,0,0.3874441837924678,0,0,5.272568478892936
18,23,female,2,45,45,left,same,valid,clock,2,0.7054074927946203,1,f,1,same,0.8618772976769833,0.6279666977116701,0,0,0,0.3874021672818344,0,0,5.185514759983562
18,23,female,3,45,355,right,same,catch,clock,1,0.9454372315030923,0,j,0,change,1.634871394197944,0,0,0,0,0.38733705772756366,0,0,7.000310793880999
18,23,female,4,15,15,left,same,valid,anti,1,0.8484772382771553,0,f,1,same,1.2004742413137137,0.6258177698148546,0,0,0,0.3874637487324435,0,0,5.543660927403835
18,23,female,5,75,215,left,change,catch,anti,2,0.8894208841948057,1,f,0,same,0.8180730009598847,0,0,0,0,0.3874307128498913,0,0,6.579765297698032
18,23,female,6,15,65,left,change,valid,clock,2,1.1044639495130468,1,f,0,same,0.9130216542180278,0.6319274590004753,0,0,0,0.3873383406744324,0,0,5.323733683321734
18,23,female,7,135,185,left,change,valid,clock,2,0.969460732524567,1,f,0,same,1.5631213071173988,0.6297369144204976,0,0,0,0.3874028087557235,0,0,5.666827997236396
18,23,female,8,135,85,left,change,valid,anti,2,1.3294318918779027,1,f,0,same,1.625034719750147,0.6276619353164059,0,0,0,0.3874473911600944,0,0,6.29065738839472
18,23,female,9,135,135,left,same,valid,anti,3,0.9453708390028623,1,f,1,same,1.2672849829141342,0.6257044519728899,0,0,0,0.3874191663280726,0,0,5.650714505190081
18,23,female,10,75,125,right,change,valid,clock,1,1.2254067101976034,0,j,1,change,0.9121258365612448,0.6238288080843497,0,0,0,0.3874265432723405,0,0,5.458129104227737
18,23,female,11,45,45,left,same,catch,clock,1,1.4893974062661073,0,f,1,same,1.1339297111899214,0,0,0,0,0.38740986496395635,0,0,6.891725698259506
18,23,female,12,165,165,left,same,valid,anti,1,0.7521484549151864,0,f,1,same,1.0900083455699132,0.6289040779177496,0,0,0,0.3875333486003001,0,0,4.780313949930132
18,23,female,13,45,355,right,change,valid,anti,1,1.4014690383219204,0,f,0,same,0.7323660555348397,0.6342256317881361,0,0,0,0.38738324381483835,0,0,5.485330464664912
18,23,female,14,105,155,left,change,valid,clock,1,1.1134628596500988,0,f,0,same,1.243434358984814,0.6392170028814808,0,0,0,0.38742301516867883,0,0,5.432102281656626
18,23,female,15,75,75,right,same,valid,anti,1,1.1934058454908154,0,j,0,change,1.3856365116416782,0.6444481618073887,0,0,0,0.38742526032547175,0,0,6.209794850379694
18,23,female,16,105,105,left,same,valid,clock,2,1.0495255983187235,1,f,1,same,1.1312547669494961,0.6493729087365421,0,0,0,0.38744482526544743,0,0,5.503766732033
18,23,female,17,165,115,left,change,catch,clock,1,1.1613453237550857,0,f,0,same,1.5062450646637444,0,0,0,0,0.38739543181145564,0,0,7.858906954919803
18,23,female,18,165,165,right,same,valid,clock,2,1.0323106963769533,1,f,1,same,1.073803443558063,0.6475232847896515,0,0,0,0.3873903000230712,0,0,4.988020804266853
18,23,female,19,135,135,left,same,valid,clock,2,1.3615004320326989,1,j,0,change,1.272458466198259,0.6457706345657703,0,0,0,0.3874182041181484,0,0,6.083010191088761
18,23,female,20,135,135,right,same,valid,anti,2,1.4974539919212475,1,f,1,same,0.9762263528828043,0.644086586893514,0,0,0,0.38742782621920924,0,0,5.909774194934471
18,23,female,21,165,215,right,change,valid,clock,2,1.6014727588681126,1,j,1,change,0.9169333592490148,0.6423326343618093,0,0,0,0.3874983882978995,0,0,5.476218975939446
18,23,female,22,15,75,left,change,catch,anti,1,0.9933979553679819,0,j,1,change,1.168820093001159,0,0,0,0,0.3874643902054231,0,0,6.439280048701221
18,23,female,23,15,325,right,change,valid,anti,2,1.1923281701137967,1,j,1,change,0.7526568226157906,0.6405978829087549,0,0,0,0.387429109166078,0,0,5.483037517857156
18,23,female,24,135,135,right,same,valid,clock,2,4.937465641079143,1,j,0,change,0.831025632636738,0.6388954290724551,0,0,0,0.38744867410605366,0,0,8.725886532329241
18,23,female,25,165,215,left,change,valid,clock,1,1.1294236810181246,0,j,1,change,0.960230891950232,0.6372893875177493,0,0,0,0.38742654327325,0,0,5.044622175351833
18,23,female,26,15,65,right,change,valid,clock,1,1.4334140948394634,0,f,0,same,1.4149229814920545,0.6418228527720615,0,0,0,0.38743808979506866,0,0,5.908694595137604
18,23,female,27,15,15,right,same,valid,anti,2,1.0174467945889774,1,f,1,same,1.2426119900364938,0.6460551819277848,0,0,0,0.38746727683610516,0,0,5.48178472023119
18,23,female,28,105,55,right,change,valid,anti,2,1.9374422272985612,1,f,0,same,0.7903090683175833,0.6445634891988293,0,0,0,0.3874461082123162,0,0,6.269932023059482
18,23,female,29,105,105,right,same,valid,anti,2,0.8174312067849314,1,f,1,same,0.8120941477736778,0.6430101854190702,0,0,0,0.3875041615592636,0,0,4.469499220930629
18,23,female,30,75,25,left,change,valid,anti,2,1.13741419490907,1,j,1,change,0.8682936357499784,0.6414765764881174,0,0,0,0.38745188147368026,0,0,4.990066463062249
18,23,female,31,15,15,left,same,valid,clock,1,0.8894176768271791,0,f,1,same,0.9867320841276523,0.6399436176024615,0,0,0,0.38745027779077645,0,0,4.86114922532397
18,23,female,32,45,45,right,same,valid,anti,3,1.041506859596666,1,f,1,same,1.0121421299872964,0.6439789720257277,0,0,0,0.3874461082123162,0,0,5.079718149399923
18,23,female,33,45,355,left,change,valid,anti,2,1.3774622156106489,1,j,1,change,0.911159456826681,0.6425217703958529,0,0,0,0.38745765473413485,0,0,5.94500359545782
18,23,female,34,15,325,left,change,valid,anti,2,1.2974849109414208,1,j,1,change,0.9656802088129552,0.6410748258566943,0,0,0,0.38742429811645707,0,0,5.272506897443236
18,23,female,35,165,115,left,change,valid,anti,2,1.3134569580952302,1,j,1,change,1.6152843234795,0.6396273416285599,0,0,0,0.3874926150365354,0,0,5.661697171935884
18,23,female,36,105,105,right,same,valid,clock,2,1.1694602834932084,1,f,1,same,0.9627845977092875,0.6382425425886114,0,0,0,0.3873591885612768,0,0,5.622709378534637
18,23,female,37,165,165,left,same,valid,clock,2,1.185446443062574,1,j,0,change,0.7388494275810444,0.6369251748775676,0,0,0,0.38751025555666274,0,0,4.861255709915895
18,23,female,38,75,75,left,same,valid,anti,2,1.8014190675412465,1,f,1,same,1.3691474368970376,0.6356592554132549,0,0,0,0.38737265950385336,0,0,6.192565194549388
18,23,female,39,105,155,right,change,valid,clock,2,1.321375306223672,1,f,0,same,1.54445763741478,0.634430539965843,0,0,0,0.38739382812764234,0,0,6.15020228864887
18,23,female,40,45,45,right,same,valid,clock,2,0.8734594213519813,1,f,1,same,0.7283222069763724,0.6331427276175008,0,0,0,0.3874695219928981,0,0,5.050398964404849
18,23,female,41,105,55,left,change,valid,anti,1,0.7614533478817975,0,j,1,change,0.7639874887017868,0.6318660967171776,0,0,0,0.3873787535012525,0,0,4.394469280157864
18,23,female,42,75,75,right,same,catch,anti,2,0.8814239555695167,1,f,1,same,1.1410975353956019,0,0,0,0,0.38741788338211336,0,0,6.62636673934594
18,23,female,43,75,25,right,change,valid,anti,1,1.2084342852158443,0,f,0,same,0.6813942553490051,0.6351922581633258,0,0,0,0.38741403454059764,0,0,5.410166135206055
18,23,female,44,75,75,right,same,valid,clock,2,0.7454822629388218,1,f,1,same,0.543705189071261,0.6386733380206349,0,0,0,0.38737907423819706,0,0,4.371287713025595
18,23,female,45,165,325,right,change,catch,clock,2,1.2973723323520971,1,f,0,same,0.8863042854918604,0,0,0,0,0.38742782622011873,0,0,6.626134846696914
18,23,female,46,165,115,right,change,valid,anti,2,1.2052400682268853,1,f,0,same,0.9875522079191796,0.6374595025215763,0,0,0,0.3874589376810036,0,0,5.43459023638934
18,23,female,47,105,15,right,change,catch,clock,1,1.561445457758964,0,f,0,same,0.6350429883423203,0,0,0,0,0.387370735084005,0,0,7.172492528437942
18,23,female,48,45,95,right,change,valid,clock,2,1.4802227324071282,1,f,0,same,0.9056453511457221,0.6362952493374342,0,0,0,0.387336095518549,0,0,5.538892855332961
18,23,female,49,75,125,left,change,valid,clock,2,1.1214463173328113,1,j,1,change,0.8893897727321018,0.6351683788182335,0,0,0,0.38736881066324713,0,0,4.783447547678406
18,23,female,50,75,75,left,same,valid,clock,1,0.8734937401814022,0,f,1,same,1.1304660753567077,0.6340678430868871,0,0,0,0.38738709265635407,0,0,5.040576723110462
18,23,female,51,105,185,left,same,catch,clock,1,0.8414848570573668,0,j,0,change,0.6934058454908154,0,0,0,0,0.3873601507721105,0,0,6.158369528472576
18,23,female,52,45,95,left,change,valid,clock,2,0.8884638058234486,1,j,1,change,0.9587571067240788,0.6370843728228862,0,0,0,0.3874063368593852,0,0,4.957417068710129
18,23,female,53,15,155,right,same,catch,anti,1,1.0174727742632967,0,f,1,same,0.882714279391621,0,0,0,0,0.38746503167931223,0,0,6.579725205608156
18,23,female,54,135,185,right,change,valid,clock,2,1.0722071369054902,1,f,0,same,1.5656490332030444,0.6359843959075907,0,0,0,0.38739062076092523,0,0,6.001447484814889
18,23,female,55,15,15,right,same,valid,clock,2,1.0494357920360926,1,f,1,same,0.8162852144860153,0.6349160970775054,0,0,0,0.38741788338120386,0,0,5.265536647057161
18,23,female,56,45,45,left,same,valid,anti,2,0.9134540073164317,1,j,0,change,1.0729457935694882,0.6337976094873383,0,0,0,0.38742782622011873,0,0,5.047957195761228
18,23,female,57,105,105,left,same,valid,anti,2,0.9374480005599253,1,f,1,same,0.6054739494429668,0.6326913942453459,0,0,0,0.38742846769309836,0,0,4.879966207179677
18,23,female,58,135,85,right,change,valid,anti,2,1.7854572839632965,1,f,0,same,1.0139068234166189,0.6315870968033419,0,0,0,0.3874063368593852,0,0,5.5320916331984336
18,23,female,1,15,325,right,change,valid,anti,2,1.3599265769498743,1,j,1,change,0.737047849427654,0.6304747830613773,0,0,0,0.38734860424938233,0,0,5.425654832122746
18,23,female,2,165,215,left,change,valid,clock,2,1.313463693565609,1,f,0,same,0.6852831880723897,0.6293608649950474,0,0,0,0.38745124000070064,0,0,5.037417787159939
18,23,female,3,75,125,right,change,valid,clock,2,1.017448077535846,1,j,1,change,0.6609181024450663,0.6282975218875648,0,0,0,0.38743424095446244,0,0,4.75723213191759
18,23,female,4,105,105,left,same,valid,clock,2,1.1533195288247953,1,f,1,same,1.2437541334948037,0.6272803766731871,0,0,0,0.387397356231304,0,0,5.645797611281523
18,23,female,5,105,155,left,change,valid,clock,2,0.9854773620809283,1,j,1,change,0.7152201119888559,0.6262999770879729,0,0,0,0.3874047331764814,0,0,5.317728850460298
18,23,female,6,165,165,left,same,valid,anti,2,1.417434670741386,1,j,0,change,1.6710508168844171,0.6253477541089771,0,0,0,0.38751506660719315,0,0,5.909120854237699
18,23,female,7,75,75,left,same,valid,clock,2,0.8974155676623923,1,f,1,same,0.8220074782975644,0.6244158465437717,0,0,0,0.38744482526544743,0,0,5.14709563278484
18,23,female,8,135,85,right,change,valid,anti,1,0.9051219088196376,0,j,1,change,1.4364011159077563,0.6234331533911815,0,0,0,0.3874303921129467,0,0,5.2377945245107185
18,23,female,9,45,355,right,change,valid,anti,3,0.9134203299608998,1,j,1,change,1.17265738711194,0.6259752661188471,0,0,0,0.38750448229620815,0,0,5.386529121931744
18,23,female,10,165,215,right,change,valid,clock,3,1.545377189589999,1,j,1,change,0.799803195948698,0.625066660695031,0,0,0,0.3874541266313827,0,0,5.651285416551218
18,23,female,11,105,105,left,same,valid,anti,2,0.5934322100492864,1,f,1,same,0.9744645460841639,0.6241748463499838,0,0,0,0.38741724190822424,0,0,4.435097962616055
18,23,female,12,75,75,left,same,valid,anti,1,0.7694653511325669,0,f,1,same,0.8045395150838885,0.6232317557944045,0,0,0,0.386669283878291,0,0,4.579430769299506
18,23,female,13,75,75,right,same,catch,anti,1,0.9214384272090683,0,j,0,change,0.8621104732728782,0,0,0,0,0.38745444736741774,0,0,6.345807425824205
18,23,female,14,135,135,left,same,valid,clock,1,1.7763913398521254,0,f,1,same,0.7269670943378514,0.6256772135419894,0,0,0,0.3874191663280726,0,0,5.8166104415204245
18,23,female,15,75,215,left,change,catch,anti,1,1.2174912486980247,0,f,0,same,0.7257053160828946,0,0,0,0,0.38749389798340417,0,0,6.267713166434987
18,23,female,16,165,115,right,change,valid,anti,1,1.320221936980488,0,j,1,change,0.8121817088976968,0.6282862038409369,0,0,0,0.3874473911600944,0,0,5.283994403785982
18,23,female,17,105,155,right,change,valid,clock,2,1.3774602911908005,1,j,1,change,1.0334608582525107,0.6309825555512134,0,0,0,0.3874037709656477,0,0,5.489713331935491
18,23,female,18,105,55,right,change,valid,anti,1,1.0574186082458255,0,f,0,same,0.6354381359806212,0.6300128984366427,0,0,0,0.38737522539759084,0,0,5.117358848580807
18,23,female,19,105,105,right,same,valid,anti,2,0.9133888977621609,1,f,1,same,0.7954062162625632,0.6325904008601503,0,0,0,0.38745348515658407,0,0,4.799042087714042
18,23,female,20,105,15,right,change,catch,clock,2,1.2334392405982726,1,j,1,change,0.9474838525102314,0,0,0,0,0.3873909414969603,0,0,6.735748865714413
18,23,female,21,105,105,right,same,valid,clock,1,0.8644499269039443,0,f,1,same,0.8974688099569903,0.6316740791082411,0,0,0,0.38736143371897924,0,0,5.15640180869832
18,23,female,22,165,115,left,change,valid,anti,1,0.657347019810004,0,f,0,same,0.7464816785568473,0.6340811252695635,0,0,0,0.3874089027531227,0,0,4.40674419514653
18,23,female,23,15,75,left,change,catch,anti,1,1.0494515081363716,0,j,1,change,0.6387827784910769,0,0,0,0,0.3875019164015612,0,0,6.033706221843204
18,23,female,24,135,185,left,change,valid,clock,1,0.7922604305185814,0,f,0,same,0.8400732947557117,0.6363801447910427,0,0,0,0.3875234057622947,0,0,4.5838094669934435
18,23,female,25,165,165,right,same,valid,clock,2,0.8253925336339307,1,f,1,same,0.7660661833806444,0.6388779049136579,0,0,0,0.38741627969739056,0,0,4.70000147538849
18,23,female,26,75,125,left,change,valid,clock,2,1.0974141564202,1,f,0,same,0.5183259339373762,0.6379933309547794,0,0,0,0.3874255810624163,0,0,4.674658463503874
18,23,female,27,15,65,right,change,valid,clock,2,3.425460144934732,1,f,0,same,0.9096693140272691,0.6371431840843798,0,0,0,0.3874829929354746,0,0,7.329969446619543
18,23,female,28,75,25,right,change,valid,anti,1,0.961288360913386,0,j,1,change,0.9596997519420256,0.636320872125649,0,0,0,0.38747625746418635,0,0,5.012487884170696
18,23,female,29,45,355,left,change,valid,anti,1,0.8014238785926864,0,f,0,same,0.8083809787731298,0.638723771350415,0,0,0,0.38748203072555043,0,0,4.483603618166853
18,23,female,30,135,185,right,change,valid,clock,1,1.0573942322553194,0,f,0,same,1.3544047735886124,0.6412112144930839,0,0,0,0.3874554095773419,0,0,5.348413090932809
18,23,female,31,45,45,right,same,valid,anti,1,1.1774594572743808,0,j,0,change,0.7570108235813677,0.6435188785155102,0,0,0,0.3874031294926681,0,0,5.509306817387369
18,23,female,32,105,55,left,change,valid,anti,2,1.0015084247916093,1,f,0,same,0.4118127975234529,0.6457001723848995,0,0,0,0.38738260234185873,0,0,4.273198085074
18,23,female,33,45,95,right,change,valid,clock,1,1.1054415550343037,0,f,0,same,0.5206307480029864,0.6449212475021715,0,0,0,0.3874435423194882,0,0,4.949730613228894
18,23,female,34,15,15,right,same,valid,clock,1,1.0574657565448433,0,f,1,same,0.5735606458611073,0.6470530780476133,0,0,0,0.38737426318766666,0,0,4.666424189706959
18,23,female,35,15,15,left,same,valid,anti,2,2.0574160423529975,1,j,0,change,1.4156593929992596,0.649409984862164,0,0,0,0.38744642894926073,0,0,6.513629706892061
18,23,female,36,165,165,left,same,valid,clock,2,1.017484320786025,1,f,1,same,0.8995577682107978,0.648564275016936,0,0,0,0.3874259017993609,0,0,4.743189316131065
18,23,female,37,165,165,right,same,valid,anti,1,0.7934846825764907,0,f,1,same,0.7368897262258542,0.6477540929196385,0,0,0,0.38737265950385336,0,0,4.599744950161039
18,23,female,38,105,185,left,same,catch,clock,1,1.0174387761717298,0,j,0,change,1.3888586327257144,0,0,0,0,0.3873399443591552,0,0,6.7669280029458605
18,23,female,39,15,65,left,change,valid,clock,2,1.0563916092705767,1,f,0,same,1.4100311050469827,0.6500974324299685,0,0,0,0.38743103358683584,0,0,5.271576760956123
18,23,female,40,135,135,right,same,valid,clock,1,1.1454762330886297,0,j,0,change,1.4823482546471496,0.6492451379506284,0,0,0,0.38743167506072496,0,0,6.037468463561709
18,23,female,41,165,115,left,change,catch,clock,1,2.1134763305926754,0,f,0,same,0.8572638207051568,0,0,0,0,0.3873235867858966,0,0,7.8900735834176885
18,23,female,42,45,95,left,change,valid,clock,1,2.0883177423211237,0,j,1,change,1.2685326487535349,0.6515729252751321,0,0,0,0.38746823904693883,0,0,6.3291573412470825
18,23,female,43,75,75,right,same,valid,anti,3,0.7134477208774115,1,f,1,same,1.3445822115563715,0.6537143945816448,0,0,0,0.38743744832117955,0,0,5.065503097996043
18,23,female,44,135,135,right,same,valid,anti,3,1.3295178493190178,1,f,1,same,1.0949031086447576,0.6529313396036092,0,0,0,0.38741627969830006,0,0,5.730033016638117
18,23,female,45,135,135,left,same,valid,anti,2,0.7934375342783824,1,f,1,same,1.1935447244904935,0.6521467850564172,0,0,0,0.3874335994805733,0,0,5.363339536381318
18,23,female,46,165,325,right,change,catch,clock,2,0.91340525533451,1,j,1,change,0.8532324808793419,0,0,0,0,0.3874393727419374,0,0,6.564269865310052
18,23,female,47,45,45,left,same,catch,clock,2,0.9521236298924123,1,f,1,same,1.921850894630552,0,0,0,0,0.3873819608688791,0,0,7.640253997822583
18,23,female,48,135,85,left,change,valid,anti,2,1.0005147824349478,1,j,1,change,0.752313634325219,0.6513556329603251,0,0,0,0.38738388528872747,0,0,5.39758523738692
18,23,female,49,15,15,left,same,valid,clock,2,1.1774568913815529,1,j,0,change,0.8426844123878254,0.6505528426131273,0,0,0,0.38736143371806975,0,0,5.294113647283666
18,23,female,50,15,15,right,same,valid,anti,1,1.1534696336093475,0,f,1,same,0.5520023272656545,0.6497370644814443,0,0,0,0.3874377690581241,0,0,4.684819723512192
18,23,female,51,45,355,right,same,catch,clock,1,0.8974899785816888,0,f,1,same,1.0942160905915443,0,0,0,0,0.3874101856999914,0,0,6.610888947476269
18,23,female,52,45,45,left,same,valid,anti,2,1.2962587344627536,1,j,0,change,0.7001361848115266,0.6519212667311742,0,0,0,0.3875080103989603,0,0,5.612016657782988
18,23,female,53,45,45,left,same,valid,clock,1,1.025486701934824,0,j,0,change,0.6887189198105261,0.6511503220347907,0,0,0,0.3874627865225193,0,0,4.537649038335076
18,23,female,54,75,75,right,same,valid,clock,2,0.9054638141633404,1,f,1,same,0.6618225799938955,0.6531889096778721,0,0,0,0.38748010630479257,0,0,4.701167032627382
18,23,female,55,15,325,left,change,valid,anti,2,1.0413833759594127,1,f,0,same,0.8445065176902062,0.6524510834025488,0,0,0,0.38746342799549893,0,0,4.579526669578627
18,23,female,56,45,45,right,same,valid,clock,3,0.841427765921253,1,f,1,same,0.7453251019460367,0.6517082149115729,0,0,0,0.38747401230648393,0,0,4.640403781870191
18,23,female,57,75,25,left,change,valid,anti,2,0.8334901735897802,1,j,1,change,0.7756004031016346,0.6509558003244962,0,0,0,0.38747561599029723,0,0,4.493865589504821
18,23,female,58,15,155,right,same,catch,anti,2,0.8494651073724526,1,j,0,change,0.721598603127859,0,0,0,0,0.3874259017993609,0,0,5.939855450375035
18,23,female,1,75,75,left,same,valid,clock,1,0.8323826696969263,0,f,1,same,0.797530776291751,0.6501893400171623,0,0,0,0.3874005635980211,0,0,4.913420650697844
18,23,female,2,45,45,left,same,catch,clock,2,1.0174477567989015,1,f,1,same,0.7527636279428407,0,0,0,0,0.3874451460033015,0,0,6.205356495656815
18,23,female,3,15,15,left,same,valid,anti,2,0.8801734030994339,1,f,1,same,0.60113502310287,0.6522310219131442,0,0,0,0.3874509192628466,0,0,4.457808688244768
18,23,female,4,75,25,right,change,valid,anti,2,0.8894388454509681,1,f,0,same,0.8920868478053308,0.6515064068799091,0,0,0,0.3874515607376452,0,0,4.7862969726947995
18,23,female,5,75,75,right,same,catch,anti,1,0.9614272399130641,0,j,0,change,0.6054656102887748,0,0,0,0,0.3874621450486302,0,0,5.893281592085259
18,23,female,6,45,355,right,same,catch,clock,2,1.46441169508671,1,f,1,same,0.8551620329835714,0,0,0,0,0.38745123999979114,0,0,6.9542988663242795
18,23,female,7,15,325,left,change,valid,anti,1,2.160114336225888,0,j,1,change,1.1299262754582742,0.6507710246784426,0,0,0,0.3873957525474907,0,0,6.474628442547328
18,23,female,8,105,105,right,same,valid,clock,2,1.2814426224458657,1,j,0,change,0.8263085577054881,0.6527226422221473,0,0,0,0.3873569434044839,0,0,5.142945941109247
18,23,female,9,15,65,left,change,valid,clock,1,1.4414658694440732,0,j,1,change,0.686578964418004,0.6520226128150077,0,0,0,0.38746567315229186,0,0,4.905682556604916
18,23,female,10,135,85,right,change,valid,anti,2,0.8173170245127039,1,j,1,change,0.8834497286889018,0.6538634913722787,0,0,0,0.38738645118246495,0,0,4.725789990577141
18,23,female,11,45,95,left,change,valid,clock,2,1.777401981255025,1,j,1,change,0.8501408996407918,0.6531864690977685,0,0,0,0.38738164013193455,0,0,5.542018113926133
18,23,female,12,75,75,left,same,valid,anti,2,1.2894369851774172,1,f,1,same,0.6623386453748026,0.6525081826649899,0,0,0,0.38745284368360444,0,0,4.922894251179059
18,23,female,13,165,325,right,change,catch,clock,1,1.0974568144047225,0,f,0,same,0.5829617598437835,0,0,0,0,0.3874137138036531,0,0,6.033771331397475
18,23,female,14,105,105,right,same,valid,anti,1,1.2725206891218477,0,j,0,change,1.0150159309923765,0.6518247595020714,0,0,0,0.3874643902063326,0,0,5.392821655629632
18,23,female,15,45,45,right,same,valid,clock,1,1.7054049269008829,0,f,1,same,1.149470367455251,0.6536254681623203,0,0,0,0.3874493155799428,0,0,6.257213849925392
18,23,female,16,75,75,right,same,valid,anti,2,1.137411949752277,1,f,1,same,0.6963579062557983,0.6553395015370495,0,0,0,0.3873925451798641,0,0,5.119623891293486
18,23,female,17,15,15,right,same,valid,anti,3,0.8654393996830549,1,f,1,same,0.7905695065337568,0.6547292915116852,0,0,0,0.3873749046606463,0,0,4.66646877211133
18,23,female,18,135,135,left,same,valid,clock,2,0.7054039646909587,1,f,1,same,0.84432465997088,0.6540840185909469,0,0,0,0.3874829929354746,0,0,4.601091082172388
18,23,female,19,15,15,right,same,valid,clock,2,0.8014973273011492,1,f,1,same,0.7398324856267209,0.653442092519623,0,0,0,0.3874493155799428,0,0,4.581993776424497
18,23,female,20,105,185,left,same,catch,clock,1,0.7932640157141577,0,f,1,same,1.1471219331961038,0,0,0,0,0.3874717671506005,0,0,6.314337380388679
18,23,female,21,15,75,left,change,catch,anti,1,0.7762251982312591,0,j,1,change,0.7441191318812344,0,0,0,0,0.3874137138036531,0,0,6.735736036245726
18,23,female,22,15,325,right,change,valid,anti,2,1.031981941239792,1,j,1,change,0.5842915342827837,0.652799918936454,0,0,0,0.38741948706501717,0,0,4.837661996098177
18,23,female,23,165,115,left,change,catch,clock,2,2.169448416234445,1,j,1,change,0.7998426465655939,0,0,0,0,0.3874191663280726,0,0,7.796378048522456
18,23,female,24,75,75,right,same,valid,clock,1,1.7443282522217487,0,f,1,same,1.1653433069623134,0.6521539826809843,0,0,0,0.38744610821322567,0,0,6.102773987739056
18,23,female,25,75,215,left,change,catch,anti,1,1.6094902146433014,0,f,0,same,1.175162020153948,0,0,0,0,0.3874329580066842,0,0,7.780872352558617
18,23,female,26,165,215,left,change,valid,clock,1,0.9197324285996729,0,f,0,same,1.0327645388351812,0.6538526853522553,0,0,0,0.38743808979506866,0,0,4.960031393709869
18,23,female,27,45,355,left,change,valid,anti,1,0.7774176973543945,0,f,0,same,0.8193588344684031,0.655478965062835,0,0,0,0.3874457874762811,0,0,4.917607868570485
18,23,female,28,45,355,right,change,valid,anti,1,0.8734308757839244,0,f,0,same,0.8722682051766242,0.6572240935134146,0,0,0,0.3874515607367357,0,0,4.746053495035994
18,23,female,29,165,165,right,same,valid,clock,3,1.0414933886540894,1,f,1,same,0.5600338954563995,0.6590308190170332,0,0,0,0.38740024286198604,0,0,4.482280899936086
18,23,female,30,105,15,right,change,catch,clock,2,1.1454335751050166,1,j,1,change,0.900443643030485,0,0,0,0,0.38741146864686016,0,0,6.79827841358474
18,23,female,31,135,135,right,same,valid,clock,2,1.0805578381323357,1,f,1,same,0.9932706228901225,0.6583831765194099,0,0,0,0.3874505985268115,0,0,5.280678627580528
18,23,female,32,75,125,right,change,valid,clock,2,1.8254512284538578,1,j,1,change,0.6060871980498632,0.6577600460082011,0,0,0,0.3874355239013312,0,0,5.8792516057683315
18,23,female,33,135,185,right,change,valid,clock,1,1.0174445494321844,0,j,1,change,0.8013655045087944,0.6571578071224418,0,0,0,0.3874675975730497,0,0,4.540124163598193
18,23,female,34,165,215,right,change,valid,clock,2,0.8253684783803692,1,j,1,change,0.6244442434490338,0.6589128714141275,0,0,0,0.3873777912913283,0,0,4.52784123019228
18,23,female,35,105,55,right,change,valid,anti,2,1.0733903346626903,1,j,1,change,0.677125570350654,0.6582848698113305,0,0,0,0.38739126223299536,0,0,4.578618343190101
18,23,female,36,165,165,right,same,valid,anti,3,0.9054727947905121,1,f,1,same,0.5281385531307023,0.6576800635154656,0,0,0,0.38744225937261945,0,0,4.711131360289983
18,23,female,37,15,15,left,same,valid,clock,2,1.1614614304471615,1,f,1,same,1.2681952337243274,0.6570950427715831,0,0,0,0.3873883756032228,0,0,5.229710355498355
18,23,female,38,165,165,left,same,valid,clock,1,0.7534381372634016,0,f,1,same,1.3363100908263732,0.656526648483925,0,0,0,0.3874547681043623,0,0,5.499287002273377
18,23,female,39,105,105,left,same,valid,clock,1,0.9374047011024231,0,j,0,change,0.9699181030864565,0.6581917177809233,0,0,0,0.3874063368593852,0,0,5.134832905790972
18,23,female,40,45,45,left,same,valid,anti,2,1.0734195217046363,1,f,1,same,0.5963637436643694,0.6599551331223292,0,0,0,0.3874028087557235,0,0,4.720969638420684
18,23,female,41,105,105,left,same,valid,anti,2,1.0894816958762021,1,f,1,same,0.8577914326087921,0.659311328923459,0,0,0,0.38741948706501717,0,0,5.248986953071835
18,23,female,42,105,155,right,change,valid,clock,2,2.8573834555027133,1,j,1,change,0.9689876458623985,0.6586952522880728,0,0,0,0.38743327874362876,0,0,7.038143293620124
18,23,female,43,105,55,left,change,valid,anti,2,1.0334765743518801,1,j,1,change,0.716296825155041,0.6581033260860757,0,0,0,0.38744867410605366,0,0,4.689158329115344
18,23,female,44,45,95,right,change,valid,clock,1,1.9054404003827585,0,j,1,change,1.151317169485992,0.6575322616513745,0,0,0,0.3873643203487518,0,0,6.183813572423787
18,23,female,45,165,115,right,change,valid,anti,2,1.1134083344077226,1,j,1,change,0.6259061614164239,0.6591929156008024,0,0,0,0.3874089027531227,0,0,5.052544051584846
18,23,female,46,165,165,left,same,valid,anti,2,1.0813824522374489,1,f,1,same,1.6534738031868983,0.6585946614791087,0,0,0,0.38737265950476285,0,0,5.780661949271234
18,23,female,47,45,45,left,same,valid,clock,1,0.6734140050330097,0,j,0,change,0.7264494252722216,0.6580193395571801,0,0,0,0.3874352031643866,0,0,4.800499194629992
18,23,female,48,135,185,left,change,valid,clock,2,1.4494637602783769,1,f,0,same,1.134980444681787,0.6596867599581403,0,0,0,0.38738484749956115,0,0,5.594074324961184
18,23,female,49,45,45,right,same,valid,anti,1,1.6172430626256755,0,j,0,change,0.7800002694184514,0.6590803907496099,0,0,0,0.3874297506399671,0,0,5.727797802440364
18,23,female,50,135,135,right,same,valid,anti,1,1.23344725901552,0,j,0,change,0.8150747541076271,0.6607852797195927,0,0,0,0.38742942990302254,0,0,4.833753177698782
18,23,female,51,75,25,left,change,valid,anti,2,1.233470672796102,1,j,1,change,0.7788648614323392,0.6623684858648669,0,0,0,0.3874275054831742,0,0,4.972525371877964
18,23,female,52,135,135,left,same,valid,anti,2,0.8094968218201757,1,f,1,same,0.7016571183339693,0.6618030272734694,0,0,0,0.38742044927494135,0,0,4.490377898417137
18,23,female,53,15,155,right,same,catch,anti,1,1.2334119779770845,0,f,1,same,1.4235546480849735,0,0,0,0,0.38736945213713625,0,0,7.141174512207726
18,23,female,54,135,85,left,change,valid,anti,2,1.1844290661874766,1,j,1,change,0.7709503621435942,0.6612286750087968,0,0,0,0.38744001421491703,0,0,4.970150637207553
18,23,female,55,165,115,left,change,valid,anti,3,1.1134865941667158,1,f,0,same,0.7183703880464236,0.6606427532024207,0,0,0,0.3874605413648169,0,0,4.880067559982308
18,23,female,56,105,155,left,change,valid,clock,2,1.1534494271963922,1,j,1,change,0.5924584533695452,0.6600425359323931,0,0,0,0.3873697728731713,0,0,4.891727301944229
18,23,female,57,75,125,left,change,valid,clock,2,1.7453889285534387,1,j,1,change,1.3638126230425769,0.6594441564539772,0,0,0,0.38742622253630543,0,0,6.384053675930772
18,23,female,58,15,65,right,change,valid,clock,2,1.1374526833151322,1,f,0,same,0.6497632000800877,0.6588713333553746,0,0,0,0.3873983184412282,0,0,4.890571046070363
18,23,female,1,15,325,right,change,valid,anti,2,1.1362726929246492,1,j,1,change,0.6734977173164225,0.658321150474879,0,0,0,0.3874047331755719,0,0,4.769512178693731
18,23,female,2,135,85,right,change,valid,anti,2,0.7134432305629161,1,j,1,change,0.7293960335136944,0.6577907518159442,0,0,0,0.38742205295875465,0,0,4.5947937374230605
18,23,female,3,75,75,left,same,valid,clock,2,0.7934837203656571,1,f,1,same,0.6024830795340677,0.6572774936082474,0,0,0,0.3875388011247196,0,0,4.399193090561312
18,23,female,4,15,155,right,same,catch,anti,2,0.9775330342781672,1,f,1,same,1.0400141509035166,0,0,0,0,0.38742365664256795,0,0,6.361372137344006
18,23,female,5,75,25,left,change,valid,anti,1,1.0564740386080302,0,j,1,change,0.911860908030576,0.6567789160532123,0,0,0,0.38738965855009155,0,0,5.519734609608349
18,23,female,6,105,155,right,change,valid,clock,2,1.0171141906112098,1,f,0,same,1.0001812162463466,0.6582383238810865,0,0,0,0.3874627865216098,0,0,4.915902190696215
18,23,female,7,165,325,right,change,catch,clock,1,0.6814648174276954,0,f,0,same,0.8906220432081682,0,0,0,0,0.3874287884300429,0,0,6.751461436861973
18,23,female,8,45,45,left,same,valid,anti,1,1.112132443738119,0,j,0,change,0.5941375100956066,0.6577214650263545,0,0,0,0.3874855588292121,0,0,4.925745921351336
18,23,female,9,165,215,left,change,valid,clock,2,0.7134060251028131,1,j,1,change,0.690331584035448,0.6592237810380537,0,0,0,0.38741788338120386,0,0,4.537932890331831
18,23,female,10,15,65,left,change,valid,clock,2,2.2814416602359415,1,f,0,same,0.7614280096804578,0.6586811884402048,0,0,0,0.3874387312689578,0,0,6.021150662225409
18,23,female,11,105,105,right,same,valid,anti,2,1.0254405158475492,1,f,1,same,0.7463450447139621,0.6581592028973042,0,0,0,0.3875253301821431,0,0,5.142083800807086
18,23,female,12,75,75,right,same,valid,clock,2,0.7933907067172186,1,f,1,same,0.8370234092908504,0.6576552504812512,0,0,0,0.38740184654579934,0,0,4.904412439196676
18,23,female,13,45,45,left,same,catch,clock,2,1.1214864094226868,1,j,0,change,0.5634362705759486,0,0,0,0,0.3874377690581241,0,0,6.205111773539102
18,23,female,14,15,65,right,change,valid,clock,1,0.9524427629285128,0,f,0,same,0.7979406778194971,0.6571669413110124,0,0,0,0.3874307128498913,0,0,4.827028932376379
18,23,female,15,165,115,left,change,catch,clock,1,1.721452667919948,0,j,1,change,0.664671684271525,0,0,0,0,0.3874483533700186,0,0,6.922788408061933
18,23,female,16,105,155,left,change,valid,clock,1,1.6084462166218145,0,f,0,same,0.5759886228279356,0.6585924239931572,0,0,0,0.38738228160582366,0,0,5.700978118698913
18,23,female,17,45,45,right,same,valid,clock,2,1.0654636473800565,1,f,1,same,0.43841373882150947,0.6601186270789244,0,0,0,0.3875153873441377,0,0,4.589724172836213
18,23,female,18,135,185,left,change,valid,clock,2,1.089547126166508,1,f,0,same,1.0076960775822954,0.6595592750709891,0,0,0,0.3874473911600944,0,0,5.393399623198093
18,23,female,19,45,355,right,same,catch,clock,1,1.2094667367155125,0,j,0,change,1.1114319547432387,0,0,0,0,0.38749550166721747,0,0,7.344029582188341
18,23,female,20,15,15,left,same,valid,anti,1,0.8802032316143595,0,f,1,same,0.8403908241079989,0.6590227121505354,0,0,0,0.38740345022870315,0,0,4.501610419068129
18,23,female,21,75,75,right,same,catch,anti,2,0.825460209081939,1,j,0,change,0.9646483987862666,0,0,0,0,0.387437127584235,0,0,6.220980222731669
18,23,female,22,45,95,right,change,valid,clock,1,1.1123357908172693,0,j,1,change,0.7960130501360254,0.660546468392325,0,0,0,0.3874457874762811,0,0,5.005042943439548
18,23,female,23,15,15,right,same,valid,clock,2,1.0414690126635833,1,f,1,same,0.7507195728303486,0.6619742602513004,0,0,0,0.3874012050719102,0,0,4.868184264528281
18,23,female,24,165,215,right,change,valid,clock,2,1.4174712347266905,1,j,1,change,0.43103743574829423,0.6614678202960275,0,0,0,0.3874044124395368,0,0,4.83211036422199
18,23,female,25,165,165,left,same,valid,anti,2,1.2254618769129593,1,f,1,same,0.7314718415609605,0.6609513620950075,0,0,0,0.38744610821322567,0,0,4.946884716317982
18,23,female,26,105,185,left,same,catch,clock,2,1.3454510873298204,1,j,0,change,0.5928657890026443,0,0,0,0,0.3874063368593852,0,0,6.4080127088718655
18,23,female,27,15,325,left,change,valid,anti,2,2.224294395254219,1,j,1,change,0.7420651339298274,0.6604227260214215,0,0,0,0.3874717671506005,0,0,6.2914582679832165
18,23,female,28,105,105,left,same,valid,anti,1,2.1054216693573835,0,f,1,same,0.7001175820814751,0.6598802781808422,0,0,0,0.38741724190822424,0,0,6.090475017495919
18,23,female,29,45,355,right,change,valid,anti,2,1.1534494271954827,1,j,1,change,0.5523208188278659,0.6613353545221472,0,0,0,0.38743905200499285,0,0,4.773949571207595
18,23,female,30,15,75,left,change,catch,anti,1,1.1933795450795515,0,j,1,change,1.0747608426645456,0,0,0,0,0.38741146864686016,0,0,7.032200683682277
18,23,female,31,135,135,left,same,valid,clock,3,0.9204588972688725,1,f,1,same,0.5557783606627709,0.6608252376888436,0,0,0,0.38742686400928505,0,0,4.618053885052177
18,23,female,32,15,15,left,same,valid,clock,1,0.8574957133532735,0,j,0,change,0.5338813440921513,0.6603025340165742,0,0,0,0.387354698247691,0,0,4.230778729510348
18,23,female,33,135,185,right,change,valid,clock,2,1.065418744238741,1,j,1,change,0.6244548277609283,0.6617002806626139,0,0,0,0.38753046197052754,0,0,4.658321097227599
18,23,female,34,75,75,right,same,valid,anti,2,0.9931493844105717,1,f,1,same,0.9666414567609536,0.6612070064513775,0,0,0,0.3874384105320132,0,0,5.256516889033264
18,23,female,35,75,75,left,same,valid,anti,2,0.9614211459147555,1,f,1,same,0.5737720113593241,0.6607028106529663,0,0,0,0.38749165282752074,0,0,4.486108892682751
18,23,female,36,135,135,right,same,valid,anti,2,1.209450379142254,1,f,1,same,0.644239472298068,0.6601856483988664,0,0,0,0.38751185924047604,0,0,4.583679247884902
18,23,female,37,105,55,right,change,valid,anti,3,0.9614493707467773,1,j,1,change,0.640537529082394,0.6596604529427357,0,0,0,0.3875035200853745,0,0,4.596216525510499
18,23,female,38,165,165,right,same,valid,clock,2,1.2094462095656127,1,f,1,same,0.5370675426629532,0.6591546861533474,0,0,0,0.387397356231304,0,0,4.672460454766224
18,23,female,39,45,95,left,change,valid,clock,2,1.5933802507006476,1,j,1,change,0.754503624645622,0.6586691592791983,0,0,0,0.38742846769309836,0,0,5.486760629696619
18,23,female,40,165,165,left,same,valid,clock,2,0.953341787953832,1,f,1,same,0.8909584960274515,0.658201630956692,0,0,0,0.3874711256776209,0,0,4.6182556284484235
18,23,female,41,75,215,left,change,catch,anti,1,1.8573828140279147,0,j,1,change,1.1015423587359692,0,0,0,0,0.3874339202175179,0,0,7.4064183266400505
18,23,female,42,105,15,right,change,catch,clock,2,1.816374379294757,1,f,0,same,0.6939475698100068,0,0,0,0,0.38743969347888196,0,0,6.953945093722723
18,23,female,43,105,55,left,change,valid,anti,1,0.7277808033941255,0,f,0,same,0.897403379667594,0.6577500210583156,0,0,0,0.38739382812673284,0,0,5.172701007305477
18,23,female,44,75,125,left,change,valid,clock,1,0.9932273234326203,0,j,1,change,1.507794864492098,0.6590636428095573,0,0,0,0.38738228160582366,0,0,5.3756397895713235
18,23,female,45,75,125,right,change,valid,clock,1,2.8173580788125037,0,f,0,same,1.022518925069562,0.6604680643204172,0,0,0,0.3874101857009009,0,0,6.896092207958645
18,23,female,46,165,115,right,change,valid,anti,2,1.20946385008574,1,j,1,change,0.7330129814981774,0.6617869969494049,0,0,0,0.3873845267626166,0,0,4.9677572998079995
18,23,female,47,45,45,left,same,valid,clock,1,1.4254004879048807,0,f,1,same,0.881475914917246,0.6613205879854462,0,0,0,0.38741307233067346,0,0,5.365611314565285
18,23,female,48,105,105,right,same,valid,clock,3,0.9614583513748585,1,f,1,same,0.6995457085104135,0.6625601208441723,0,0,0,0.3873579056144081,0,0,4.3102181587019
18,23,female,49,165,165,right,same,valid,anti,3,1.0174583411117055,1,f,1,same,0.5057950710461228,0.6621148508541962,0,0,0,0.38735726414142846,0,0,4.354321702778179
18,23,female,50,135,85,left,change,valid,anti,2,0.9214223903736638,1,j,1,change,0.6157561271938903,0.6616624769713004,0,0,0,0.38747625746418635,0,0,4.721870587864942
18,23,female,51,135,135,left,same,valid,anti,2,0.7855127714155969,1,f,1,same,1.0078509934182875,0.6612012795174877,0,0,0,0.3874740123073934,0,0,4.561362386947621
18,23,female,52,165,115,left,change,valid,anti,2,0.9854398358856997,1,f,0,same,0.7254785552222529,0.6607295031946301,0,0,0,0.38740986496395635,0,0,5.028769121521691
18,23,female,53,105,105,left,same,valid,clock,2,0.8414527833847387,1,f,1,same,0.7410362105347303,0.660245345192227,0,0,0,0.38739286591680866,0,0,4.3164856749363025
18,23,female,54,75,25,right,change,valid,anti,1,1.4174510283146446,0,f,0,same,0.3644605112158388,0.6597504725687509,0,0,0,0.3874441837924678,0,0,4.721743896861881
18,23,female,55,45,355,left,change,valid,anti,1,2.1214161680818506,0,f,0,same,1.1362332423086627,0.6610852089851247,0,0,0,0.3874887661968387,0,0,6.457183893115143
18,23,female,56,135,135,right,same,valid,clock,1,1.1614585438164795,0,j,0,change,1.1322522581467638,0.6623003891178081,0,0,0,0.38743584463736624,0,0,5.468673965351627
18,23,female,57,45,45,right,same,valid,anti,2,1.0654161783450036,1,f,1,same,0.6134256541909053,0.6634297426677155,0,0,0,0.38745348515749356,0,0,5.239517842904206
18,23,female,58,15,15,right,same,valid,anti,2,0.9294260544702411,1,f,1,same,0.599795305824955,0.6630161517089302,0,0,0,0.38741403454059764,0,0,4.501420222193701
18,23,female,1,15,155,right,same,catch,anti,1,0.9762581058184878,0,j,0,change,0.6871620637739397,0,0,0,0,0.38747625746418635,0,0,6.229651660678428
18,23,female,2,45,95,left,change,valid,clock,1,0.8881305603717919,0,j,1,change,0.8862815131842581,0.6625988648930549,0,0,0,0.3874207700118859,0,0,4.934758943903944
18,23,female,3,45,45,left,same,valid,anti,2,0.6894402566913413,1,f,1,same,0.5206618594647807,0.6636976823024856,0,0,0,0.3874541266304732,0,0,4.195669284519681
18,23,female,4,75,215,left,change,catch,anti,1,0.8332695067265377,0,f,0,same,0.7267319943221082,0,0,0,0,0.3873925451807736,0,0,5.815313061490087
18,23,female,5,105,155,right,change,valid,clock,1,2.0880823215693454,0,j,1,change,0.5867172660919096,0.6632927596796648,0,0,0,0.387445146002392,0,0,5.7777740358496885
18,23,female,6,45,45,right,same,valid,clock,1,1.0014635216502938,0,f,1,same,0.9065649033200316,0.6643528589000364,0,0,0,0.3874368068481999,0,0,5.108468988928507
18,23,female,7,15,15,left,same,valid,clock,1,1.3292487512117077,0,j,0,change,1.479070325374778,0.665384712233912,0,0,0,0.3874044124395368,0,0,6.03821289348798
18,23,female,8,165,215,left,change,valid,clock,1,1.3214904507058236,0,j,1,change,0.6865382308551489,0.66649689209422,0,0,0,0.38737522539759084,0,0,5.384115898855271
18,23,female,9,135,185,left,change,valid,clock,2,1.0813311343626992,1,j,1,change,0.5991400407083347,0.6676386828471711,0,0,0,0.38741082717388053,0,0,4.648758331938552
18,23,female,10,105,15,right,change,catch,clock,1,0.8334205737210141,0,f,0,same,0.9928729093571746,0,0,0,0,0.3873925451807736,0,0,6.423554968821918
18,23,female,11,165,215,right,change,valid,clock,2,0.6964910119950218,1,j,1,change,0.5223947999593292,0.6672375616306631,0,0,0,0.3874117893838047,0,0,4.3620331757229
18,23,female,12,135,135,right,same,valid,anti,2,1.969521993237322,1,f,1,same,0.3746224126971356,0.6668472374726402,0,0,0,0.3874137138036531,0,0,5.256256450817091
18,23,female,13,135,135,left,same,valid,anti,2,1.1134574071256793,1,j,0,change,0.9000533064427145,0.6664662594098676,0,0,0,0.38740601612244063,0,0,4.701625365399195
18,23,female,14,105,105,right,same,valid,anti,3,1.273463655076739,1,f,1,same,0.7740980723074244,0.6660932536106982,0,0,0,0.38741627969739056,0,0,5.085003890536427
18,23,female,15,15,75,left,change,catch,anti,2,1.2893933649829705,1,j,1,change,0.9883271078333564,0,0,0,0,0.38745284368360444,0,0,6.735637890809812
18,23,female,16,15,15,right,same,valid,clock,1,1.2642479269179603,0,f,1,same,0.550264254983631,0.6657269132334629,0,0,0,0.3874505985268115,0,0,5.033596529885472
18,23,female,17,165,165,left,same,valid,anti,1,1.1054758738628152,0,f,1,same,0.8210186469914333,0.6668102898075196,0,0,0,0.3874557303142865,0,0,5.032269962814098
18,23,female,18,105,155,left,change,valid,clock,2,0.9374133609935598,1,f,0,same,0.9750069118763349,0.66793165420739,0,0,0,0.38736528255958547,0,0,4.84051687363808
18,23,female,19,45,45,left,same,catch,clock,1,0.9534341601283813,0,j,0,change,0.6117020150604731,0,0,0,0,0.38744386305552325,0,0,6.033802122122324
18,23,female,20,75,75,left,same,valid,clock,2,1.0565192624844713,1,j,0,change,0.7431803355038937,0.66753497632969,0,0,0,0.3874695219928981,0,0,5.068628356589215
18,23,female,21,135,85,right,change,valid,anti,2,1.0174548130071344,1,j,1,change,0.5658607194382057,0.6671497755349092,0,0,0,0.3874621450486302,0,0,4.788688064938469
18,23,female,22,15,65,left,change,valid,clock,1,1.732173292765765,0,f,0,same,0.9945025726292442,0.6667746277349869,0,0,0,0.38738805486627825,0,0,5.743232615588568
18,23,female,23,75,125,right,change,valid,clock,1,1.081459749786518,0,j,1,change,0.6863829942822122,0.6678745605943177,0,0,0,0.38746984273075213,0,0,5.097143133892132
18,23,female,24,45,45,left,same,valid,clock,2,1.409448005691047,1,j,0,change,1.0255877340014194,0.6690414581783891,0,0,0,0.38745765473504434,0,0,5.610256454666342
18,23,female,25,75,75,right,same,catch,anti,1,1.2334360332315555,0,f,1,same,0.9338592774065546,0,0,0,0,0.3874191663289821,0,0,7.141304410578414
18,23,female,26,165,115,left,change,catch,clock,1,0.8562701783484954,0,f,0,same,0.9590938802784876,0,0,0,0,0.38751346292428934,0,0,6.5643898208427345
18,23,female,27,75,75,left,same,valid,anti,1,1.0164422471843864,0,f,1,same,0.9267004338280458,0.6686194478609594,0,0,0,0.3873793949751416,0,0,5.148349713357675
18,23,female,28,135,135,left,same,valid,clock,1,1.0894348683150383,0,j,0,change,0.723249435022808,0.6698405682605794,0,0,0,0.38747048420373176,0,0,4.727056579881719
18,23,female,29,105,55,left,change,valid,anti,1,1.3294941148024009,0,j,1,change,0.8359688269565595,0.6710737310830373,0,0,0,0.38743648611125536,0,0,5.287401269219117
18,23,female,30,135,135,right,same,valid,clock,2,1.8494558060083364,1,j,0,change,1.094894448753621,0.672195277609938,0,0,0,0.3874361653743108,0,0,5.678176303843429
18,23,female,31,15,15,right,same,valid,anti,2,0.8974370570231258,1,f,1,same,0.5049143280148201,0.6717951144703234,0,0,0,0.3874473911600944,0,0,4.63854126374099
18,23,female,32,45,355,right,change,valid,anti,1,1.1774450241227896,0,f,0,same,0.9257994843837878,0.671387080008726,0,0,0,0.3873909414969603,0,0,4.932210369931454
18,23,female,33,45,355,right,same,catch,clock,1,1.265384297114906,0,f,1,same,0.844342941963987,0,0,0,0,0.3874182041181484,0,0,6.767062712367988
18,23,female,34,105,105,right,same,valid,clock,2,1.1202634403116463,1,j,0,change,0.8419415861462767,0.672472367495387,0,0,0,0.38741724190822424,0,0,5.220476345346469
18,23,female,35,105,105,left,same,valid,clock,1,1.1534449368818969,0,f,1,same,0.9257837682844183,0.6720829215497057,0,0,0,0.38747786114799965,0,0,4.9848512840053445
18,23,female,36,75,25,right,change,valid,anti,1,0.9773819672836908,0,j,1,change,0.6834626864529127,0.6731135500837251,0,0,0,0.3874659938892364,0,0,4.464231120314253
18,23,female,37,75,25,left,change,valid,anti,2,1.2733013622973886,1,j,1,change,0.7176028650765147,0.6740888150828697,0,0,0,0.38742461885249213,0,0,4.705290744628655
18,23,female,38,45,355,left,change,valid,anti,1,0.9694581666308295,0,f,0,same,1.1270431730863493,0.6737258110563658,0,0,0,0.38738484749956115,0,0,4.976556070231709
18,23,female,39,105,105,left,same,valid,anti,1,1.2814573763344015,0,j,0,change,0.6197162634680353,0.6746732909070288,0,0,0,0.38740665759632975,0,0,5.318820958989818
18,23,female,40,135,85,left,change,valid,anti,2,1.0174759816309233,1,f,0,same,1.2425510500597738,0.6756036293061349,0,0,0,0.3874368068481999,0,0,5.2692401939557385
18,23,female,41,135,185,right,change,valid,clock,2,0.945467060018018,1,j,1,change,0.6468874746533402,0.6752672360381328,0,0,0,0.3873931866537532,0,0,5.035747711061958
18,23,female,42,105,55,right,change,valid,anti,1,0.8654862272451282,0,j,1,change,0.5719367558513113,0.6749343753164965,0,0,0,0.38742141148486553,0,0,4.427205914897968
18,23,female,43,165,115,right,change,valid,anti,2,1.1214376574416747,1,f,0,same,0.8140188888273769,0.6758528606214688,0,0,0,0.38734988719716057,0,0,4.5630638952443405
18,23,female,44,15,65,right,change,valid,clock,1,1.2974810621008146,0,f,0,same,0.8552858373568597,0.6755186015255124,0,0,0,0.3874538058935286,0,0,5.366649860062353
18,23,female,45,165,325,right,change,catch,clock,2,0.8974113980848415,1,j,1,change,0.4785106397994241,0,0,0,0,0.38742365664256795,0,0,6.002525480928853
18,23,female,46,15,325,left,change,valid,anti,1,0.9281241841263181,0,j,1,change,0.7294079007715482,0.6765092803964631,0,0,0,0.3874467496862053,0,0,4.919594511809919
18,23,female,47,165,115,left,change,valid,anti,1,0.9053335950538894,0,j,1,change,0.7682876058997863,0.6775288367061932,0,0,0,0.3874605413648169,0,0,4.564081592855473
18,23,female,48,45,95,right,change,valid,clock,3,0.9374111158367668,1,j,1,change,0.619108467384649,0.6786038202637648,0,0,0,0.38743007137691166,0,0,4.464013981554672
18,23,female,49,75,125,left,change,valid,clock,2,1.3454000901911058,1,j,1,change,0.8048288196050635,0.6782177182528997,0,0,0,0.3874127515937289,0,0,5.121191331641057
18,23,female,50,15,325,right,change,valid,anti,2,1.0094453756501025,1,j,1,change,0.6200504711296162,0.6778444712390306,0,0,0,0.38740986496304686,0,0,4.59517990443328
18,23,female,51,75,75,right,same,valid,anti,2,1.1214620334330903,1,f,1,same,0.8358896049867326,0.677482723044331,0,0,0,0.38738164013193455,0,0,5.119665587067175
18,23,female,52,75,75,right,same,valid,clock,2,0.857474544730394,1,f,1,same,0.611787010291664,0.6771311990709799,0,0,0,0.38744001421491703,0,0,4.673822302876943
18,23,female,53,15,15,left,same,valid,anti,1,0.9373690993261334,0,j,0,change,1.1206287594350215,0.676788697204453,0,0,0,0.38739607328443526,0,0,4.911890736546411
18,23,female,54,165,165,right,same,valid,anti,3,0.9454423632905673,1,f,1,same,0.6350253478231025,0.6777931104722135,0,0,0,0.38750063345469243,0,0,4.836709408042225
18,23,female,55,105,185,left,same,catch,clock,1,0.7375334448215654,0,f,1,same,1.085170032156384,0,0,0,0,0.38737907423819706,0,0,6.158517067363391
18,23,female,56,165,165,left,same,valid,clock,2,0.9203947499254355,1,f,1,same,0.8726537307129547,0.6774380730250278,0,0,0,0.3874265432723405,0,0,5.276179332880929
18,23,female,57,45,45,right,same,valid,anti,2,0.8654381167370957,1,f,1,same,0.621524577092714,0.6770929355738902,0,0,0,0.38748523809226754,0,0,4.401555957973869
18,23,female,58,165,165,right,same,valid,clock,2,0.7214433665558317,1,f,1,same,0.6447055027510942,0.6767565369785019,0,0,0,0.3874505985268115,0,0,4.281416963508491
18,23,female,1,45,355,right,change,valid,anti,2,1.336194946343312,1,j,1,change,0.6195372923793911,0.6764277772100882,0,0,0,0.38742846769309836,0,0,5.025435384059165
18,23,female,2,75,75,left,same,valid,clock,1,1.113243475733725,0,f,1,same,1.3114424107598097,0.6761056101293728,0,0,0,0.3874897284067629,0,0,5.46324902447941
18,23,female,3,135,135,left,same,valid,clock,1,0.9774525293614715,0,j,0,change,0.6372875039050996,0.6770558599745379,0,0,0,0.3874047331764814,0,0,5.034724240190371
18,23,female,4,45,355,left,change,valid,anti,1,1.5693144124325045,0,f,0,same,1.1249263107392835,0.6780478801355472,0,0,0,0.38751827397391025,0,0,5.658184784121659
18,23,female,5,105,55,left,change,valid,anti,2,1.0092744229787058,1,j,1,change,0.4842688261232979,0.6791066183200669,0,0,0,0.38747208788663556,0,0,4.737267233344937
18,23,female,6,15,325,left,change,valid,anti,2,1.1054383476666771,1,f,0,same,0.8184780914371004,0.6787225518706685,0,0,0,0.3874871625121159,0,0,5.0732960380682925
18,23,female,7,105,55,right,change,valid,anti,2,1.025414856909265,1,j,1,change,0.6181164287118008,0.678352375312706,0,0,0,0.3874307128508008,0,0,4.72176506548476
18,23,female,8,165,115,right,change,valid,anti,1,1.017431719963497,0,j,1,change,0.9321590520557947,0.6779947527841393,0,0,0,0.38737041434706043,0,0,5.049596481133449
18,23,female,9,105,185,left,same,catch,clock,2,0.977386136860332,1,f,1,same,0.797926886139976,0,0,0,0,0.3874275054831742,0,0,6.26731481142906
18,23,female,10,165,115,left,change,valid,anti,2,1.0640610657055731,1,j,1,change,0.6554492206423674,0.67903429396415,0,0,0,0.38745989989183727,0,0,4.961560024915343
18,23,female,11,75,75,right,same,valid,clock,1,0.7534942661895911,0,f,1,same,0.5739666985482472,0.6786575810139491,0,0,0,0.38752148134244635,0,0,4.5114172650010005
18,23,female,12,105,105,right,same,valid,anti,1,1.0654658925368494,0,f,1,same,0.9153097899752538,0.6797479586390773,0,0,0,0.38739222444382904,0,0,4.721132251936979
18,23,female,13,75,125,left,change,valid,clock,1,0.689475537731596,0,j,1,change,0.6216118174806979,0.6808669751676653,0,0,0,0.3873617544559238,0,0,4.369419742371974
18,23,female,14,45,45,left,same,valid,clock,1,1.0174490397466798,0,f,1,same,0.6895044040365974,0.681884739960138,0,0,0,0.3875131421864353,0,0,4.712137190641442
18,23,female,15,135,185,right,change,valid,clock,3,1.1054553467129153,1,j,1,change,0.6597900714023126,0.6828237422621188,0,0,0,0.38748106851471675,0,0,5.055720948790622
18,23,female,16,135,85,left,change,valid,anti,1,0.8174520546717758,0,f,0,same,0.9078818482903444,0.6824841569968577,0,0,0,0.38741403454059764,0,0,4.944295088045692
18,23,female,17,135,135,right,same,valid,clock,1,0.9774307192647029,0,j,0,change,0.6564457496297109,0.6833809881118964,0,0,0,0.38738580970948533,0,0,4.654066845381749
18,23,female,18,75,75,right,same,valid,anti,1,0.8014088039662965,0,f,1,same,0.7173000896136728,0.6842351297649015,0,0,0,0.3873925451807736,0,0,4.187815083734677
18,23,female,19,15,325,right,change,valid,anti,2,1.5454301111476525,1,j,1,change,0.6601059970707865,0.6850654967239601,0,0,0,0.3873633581397371,0,0,5.101794778533986
18,23,female,20,45,95,left,change,valid,clock,2,0.6895185164521536,1,j,1,change,1.0164598877036042,0.684769003259195,0,0,0,0.38741948706501717,0,0,4.503352340190759
18,23,female,21,45,355,right,same,catch,clock,2,0.8974784320598701,1,j,0,change,0.6563989220676376,0,0,0,0,0.38750448229529866,0,0,6.361357062719435
18,23,female,22,75,215,left,change,catch,anti,2,1.4882414711291858,1,j,1,change,0.6430883482116769,0,0,0,0,0.38742782621920924,0,0,6.891860086945599
18,23,female,23,165,215,left,change,valid,clock,2,1.4473205975200472,1,j,1,change,0.5995226796148927,0.6844536886006056,0,0,0,0.387437127584235,0,0,5.330128211296142
18,23,female,24,165,165,left,same,valid,clock,2,0.9533802763598942,1,f,1,same,0.5559072968244436,0.6841390836916699,0,0,0,0.3874072990693094,0,0,4.297258470816814
18,23,female,25,75,25,right,change,valid,anti,1,1.073484951994942,0,f,0,same,1.065963355187705,0.6838242270311256,0,0,0,0.38740248801877897,0,0,4.997523591790014
18,23,female,26,75,75,right,same,catch,anti,1,1.0094771285848765,0,j,0,change,0.5773742054552713,0,0,0,0,0.38744546673933655,0,0,6.641995918946122
18,23,female,27,135,135,right,same,valid,anti,3,0.9604156362993308,1,f,1,same,0.7508943743423515,0.6846462007488623,0,0,0,0.38742429811554757,0,0,4.726043693322026
18,23,female,28,45,45,left,same,valid,anti,3,1.1294483777455753,1,j,0,change,0.513030249962867,0.6843357307019294,0,0,0,0.38744482526635693,0,0,4.349932420773257
18,23,female,29,75,125,right,change,valid,clock,4,1.6734656436456135,1,j,1,change,0.6647768859156713,0.684025572630817,0,0,0,0.38741403454150714,0,0,5.468084771998292
18,23,female,30,75,25,left,change,valid,anti,2,1.0974468715658077,1,f,0,same,0.9037350432445237,0.6837147935114043,0,0,0,0.38744129716178577,0,0,4.814263290206327
18,23,female,31,105,15,right,change,catch,clock,2,0.9854456091470638,1,f,0,same,0.9127102188649587,0,0,0,0,0.3873967147583244,0,0,6.454914360087969
18,23,female,32,105,105,right,same,valid,clock,2,0.7036521007294141,1,f,1,same,0.5372346464937436,0.6834024681176476,0,0,0,0.38748523809226754,0,0,4.4609640960898105
18,23,female,33,165,325,right,change,catch,clock,1,0.873497589022918,0,f,0,same,0.7040084392247081,0,0,0,0,0.3874461082123162,0,0,6.00238692266521
18,23,female,34,45,45,right,same,valid,clock,2,1.1445470588114404,1,f,1,same,0.5996788783968441,0.6830876740308394,0,0,0,0.3875455365960079,0,0,4.814398641103253
18,23,female,35,15,15,left,same,valid,clock,2,0.6494485573584825,1,f,1,same,0.6159876991050623,0.6827694867584773,0,0,0,0.38746823904602934,0,0,4.336534927266257
18,23,female,36,165,115,left,change,catch,clock,1,0.6494944227088126,0,j,1,change,0.8411217830907844,0,0,0,0,0.3874133930667085,0,0,6.018328179094169
18,23,female,37,135,135,left,same,valid,anti,1,1.0162517295721045,0,f,1,same,0.8950677748762246,0.6824469749215714,0,0,0,0.3874249395894367,0,0,5.079507425375596
18,23,female,38,165,165,right,same,valid,clock,2,0.9454580793899368,1,f,1,same,0.5824084890027734,0.6832994281580586,0,0,0,0.3874101856999914,0,0,4.600086855503832
18,23,female,39,15,65,right,change,valid,clock,2,0.9854674192438324,1,f,0,same,0.9258222566913901,0.6829878435419928,0,0,0,0.3874894076698183,0,0,4.6607545267179376
18,23,female,40,45,45,left,same,catch,clock,1,1.0171671121706822,0,j,0,change,0.5073679639181137,0,0,0,0,0.38744482526635693,0,0,6.033907644503415
18,23,female,41,15,75,left,change,catch,anti,1,0.936510807864579,0,f,0,same,0.7142357709963107,0,0,0,0,0.3874570132611552,0,0,6.26783248049469
18,23,female,42,105,105,left,same,valid,anti,2,0.9123641439437051,1,f,1,same,0.6831364972085794,0.6826725825990384,0,0,0,0.3874182041181484,0,0,4.9795203189923996
18,23,female,43,105,155,left,change,valid,clock,1,0.7933762735647178,0,f,0,same,0.7047118148502705,0.6823527327223232,0,0,0,0.38745348515749356,0,0,4.3215722385684785
18,23,female,44,105,105,left,same,valid,clock,1,1.4094351762223596,0,f,1,same,0.7223186570627149,0.6831989054787989,0,0,0,0.38740569538640557,0,0,5.071234663171708
18,23,female,45,15,155,right,same,catch,anti,2,0.9693959437063313,1,j,0,change,0.6801109877351337,0,0,0,0,0.3875035200853745,0,0,6.189807179499439
18,23,female,46,15,15,left,same,valid,anti,2,1.160225952604378,1,f,1,same,0.6300568153019412,0.6840013982611489,0,0,0,0.38747946483090345,0,0,5.0372603054311185
18,23,female,47,45,45,right,same,valid,anti,2,1.1533570550209333,1,f,1,same,0.5365617408560865,0.6837030919496953,0,0,0,0.38740826127923356,0,0,4.653369884489621
18,23,female,48,135,185,left,change,valid,clock,2,1.5854991080313994,1,j,1,change,0.696898347628121,0.6834031673866937,0,0,0,0.38741563822350145,0,0,5.347534593059208
18,23,female,49,15,15,right,same,valid,clock,2,1.6094279917197127,1,f,1,same,0.5521957315077088,0.683100767002455,0,0,0,0.38744867410605366,0,0,4.922806048581151
18,23,female,50,15,15,right,same,valid,anti,2,1.8574841668323643,1,f,1,same,0.5049589104182814,0.6827950304565209,0,0,0,0.3874445045285029,0,0,5.127647120329129
18,23,female,51,45,95,right,change,valid,clock,2,1.393429772449963,1,j,1,change,0.5376868852681582,0.682485090335269,0,0,0,0.38747689893807546,0,0,4.609774708113946
18,23,female,52,165,165,right,same,valid,anti,2,1.0014564654429705,1,f,1,same,0.9078898667075919,0.6821700678673615,0,0,0,0.38743327874453826,0,0,4.909811721130609
18,23,female,53,165,215,right,change,valid,clock,2,1.1134785757485588,1,j,1,change,0.49134844773107034,0.6818490686241185,0,0,0,0.3873919037068845,0,0,4.682607602358075
18,23,female,54,135,85,right,change,valid,anti,2,1.049459526553619,1,j,1,change,0.5989232226847889,0.6815211781724724,0,0,0,0.3873957525474907,0,0,4.760459384789101
18,23,female,55,165,165,left,same,valid,anti,1,0.8574633189455199,0,j,0,change,0.8030833703787721,0.6811854576483876,0,0,0,0.3874313543237804,0,0,4.850491785612576
18,23,female,56,15,65,left,change,valid,clock,2,0.8254239658326696,1,j,1,change,0.5707673497718133,0.6820814438059882,0,0,0,0.3874223736956992,0,0,4.301556984331
18,23,female,57,75,75,left,same,valid,anti,2,0.889475730173217,1,f,1,same,0.5810232271123823,0.6817624105693159,0,0,0,0.3875218020784814,0,0,4.434319534598217
18,23,female,58,105,155,right,change,valid,clock,1,1.4414713219675832,0,f,0,same,0.7038288266621748,0.6814362826546597,0,0,0,0.3874419386347654,0,0,5.074821141168286
18,23,female,1,75,75,left,same,valid,clock,1,0.7524207603892137,0,j,0,change,0.7414733746827551,0.682305301746988,0,0,0,0.38736047150905506,0,0,4.385513028004425
18,23,female,2,165,165,left,same,valid,clock,2,0.9374181720440902,1,f,1,same,0.6721881492912871,0.6831135991647819,0,0,0,0.387354698247691,0,0,4.40016396061128
18,23,female,3,45,355,left,change,valid,anti,1,1.5614281379757813,0,j,1,change,0.7613670697046473,0.6828194456437473,0,0,0,0.3875067274530011,0,0,5.103942110870776
18,23,female,4,165,165,right,same,valid,anti,2,1.209413494420005,1,f,1,same,0.6452902057908432,0.6835950823582227,0,0,0,0.3873421895159481,0,0,4.785711628182071
18,23,female,5,75,25,left,change,valid,anti,2,1.0494588850806394,1,j,1,change,0.6704507184831527,0.6833096093754119,0,0,0,0.3873453968826652,0,0,4.754053631028
18,23,female,6,45,45,left,same,catch,clock,1,0.809434919632622,0,f,1,same,0.8828159529311961,0,0,0,0,0.3874361653743108,0,0,6.174100702349278
18,23,female,7,75,25,right,change,valid,anti,2,1.0001978945565497,1,f,0,same,0.8041687434370033,0.6830214004483082,0,0,0,0.38747786114799965,0,0,5.016904108059862
18,23,female,8,135,135,right,same,valid,clock,3,0.9853487466571096,1,f,1,same,0.7067007032474066,0.6827296685406776,0,0,0,0.3874117893838047,0,0,4.751117607098422
18,23,female,9,135,85,right,change,valid,anti,3,1.3054539354716326,1,j,1,change,0.5126626856826988,0.6824336181901904,0,0,0,0.3874563717881756,0,0,4.767460746636971
18,23,female,10,45,355,right,change,valid,anti,2,1.0974035721083055,1,j,1,change,0.926037150292359,0.6821324417818306,0,0,0,0.3873479627764027,0,0,5.0799317600558425
18,23,female,11,105,155,left,change,valid,clock,2,1.233452390802995,1,j,1,change,0.9103261828286122,0.6818253157921637,0,0,0,0.38740184654579934,0,0,5.129172864903921
18,23,female,12,15,325,right,change,valid,anti,3,1.161426790880796,1,j,1,change,0.5811935383098898,0.6815113969777444,0,0,0,0.3873441139357965,0,0,4.610954377767484
18,23,female,13,135,85,left,change,valid,anti,3,1.6334822834660372,1,j,1,change,0.6323731758902795,0.6811898184809697,0,0,0,0.38743263727064914,0,0,5.207768756522455
18,23,female,14,135,135,left,same,valid,clock,2,1.1694349452927781,1,f,1,same,0.9349966098134246,0.6808596858264437,0,0,0,0.3874823514615855,0,0,4.996375995807284
18,23,female,15,15,15,right,same,valid,anti,2,1.4574501045917714,1,f,1,same,0.581776316928881,0.6805200727804478,0,0,0,0.387484917355323,0,0,5.139208396117283
18,23,female,16,45,45,right,same,valid,anti,1,1.2733594156434265,0,j,0,change,0.6186652092383156,0.6801700170453664,0,0,0,0.38742269443264377,0,0,4.789379573304359
18,23,female,17,45,355,right,same,catch,clock,1,0.9534941378951771,0,f,1,same,0.6540161689790693,0,0,0,0,0.3874121101198398,0,0,6.142867039875455
18,23,female,18,15,155,right,same,catch,anti,1,1.0084411489815466,0,j,0,change,0.8046039831651797,0,0,0,0,0.38742782622011873,0,0,6.673333820853259
18,23,female,19,165,165,right,same,valid,clock,2,1.1684765839745523,1,f,1,same,0.7231670056853545,0.6811101703713931,0,0,0,0.38744963631688734,0,0,4.836851815145565
18,23,female,20,105,105,right,same,valid,clock,3,1.0975055663857347,1,f,1,same,0.8043631098880724,0.6807811613443822,0,0,0,0.3873739424507221,0,0,5.023571582984005
18,23,female,21,165,165,left,same,valid,anti,2,1.0255152475028808,1,f,1,same,0.5363728269285275,0.6804425152638699,0,0,0,0.3873579056153176,0,0,4.687030561719439
18,23,female,22,165,215,right,change,valid,clock,1,0.8414373880232233,0,j,1,change,0.5751498963054473,0.6800932781531046,0,0,0,0.3874695219928981,0,0,4.749625860617016
18,23,female,23,165,325,right,change,catch,clock,1,1.1214315634442755,0,f,0,same,0.6599045744114846,0,0,0,0,0.38747369157044886,0,0,5.940230712337325
18,23,female,24,75,75,right,same,valid,clock,2,1.2720527342489731,1,f,1,same,0.6838106857921957,0.6810316677333152,0,0,0,0.38742654327325,0,0,5.045252743741912
18,23,female,25,75,215,left,change,catch,anti,1,0.985427968626027,0,j,1,change,0.8342884872836294,0,0,0,0,0.38744771189703897,0,0,6.37687206004739
18,23,female,26,15,75,left,change,catch,anti,1,0.9283140602638014,0,j,1,change,0.7728770276171417,0,0,0,0,0.3874111479099156,0,0,6.439420852120747
18,23,female,27,105,105,left,same,valid,anti,1,1.1918531590326893,0,j,0,change,0.8837473723651783,0.6807036824879568,0,0,0,0.3874538058944381,0,0,5.354892934875352
18,23,female,28,105,105,right,same,valid,anti,2,1.0574263059279474,1,f,1,same,0.535671054985869,0.681582128775778,0,0,0,0.3874121101207493,0,0,4.585948139438187
18,23,female,29,105,185,left,same,catch,clock,2,0.945483417592186,1,j,0,change,0.5457165290390549,0,0,0,0,0.3873861304464299,0,0,6.158544650720614
18,23,female,30,165,115,right,change,valid,anti,1,0.920501234515541,0,j,1,change,0.6703987591336045,0.6812722732035634,0,0,0,0.3875025578754503,0,0,5.051591784264929
18,23,female,31,45,45,right,same,valid,clock,2,0.9214589543607872,1,f,1,same,0.38907737516819907,0.6820993511361346,0,0,0,0.387429109166078,0,0,4.1633319669945195
18,23,female,32,165,115,left,change,catch,clock,1,0.9613618096227583,0,f,0,same,0.859029476347132,0,0,0,0,0.38740665759632975,0,0,6.111600662256933
18,23,female,33,105,15,right,change,catch,clock,2,1.3283157280948217,1,f,0,same,0.639322578388601,0,0,0,0,0.38746663536312553,0,0,6.751139737932135
18,23,female,34,15,65,right,change,valid,clock,1,0.8161896349429298,0,j,1,change,1.0021569544387603,0.6818048254861939,0,0,0,0.38741563822441094,0,0,5.05210271785927
18,23,female,35,105,105,left,same,valid,clock,1,0.8652832009011036,0,f,1,same,0.8497213760110753,0.6825881957783868,0,0,0,0.38737265950385336,0,0,4.99648183892532
18,23,female,36,45,95,left,change,valid,clock,1,0.8334674012803589,0,f,0,same,0.713394478581904,0.6833208762624674,0,0,0,0.3874085820170876,0,0,4.67500325547735
18,23,female,37,75,75,left,same,valid,anti,2,0.8414668958012044,1,f,1,same,0.44514824771795247,0.6840174721548711,0,0,0,0.3874127515937289,0,0,4.057419249719715
18,23,female,38,15,325,left,change,valid,anti,2,0.8414944791584276,1,j,1,change,0.5023878848751338,0.6837584086237489,0,0,0,0.38737041434706043,0,0,4.216348463767645
18,23,female,39,165,115,left,change,valid,anti,2,0.9934194447287155,1,f,0,same,0.6117684075616125,0.6834977876394914,0,0,0,0.38741146864776965,0,0,4.410989787101244
18,23,female,40,135,185,right,change,valid,clock,1,0.7373923206650943,0,f,0,same,0.8702238293262781,0.6832349381502185,0,0,0,0.38743007137691166,0,0,4.410356332080482
18,23,female,41,165,215,left,change,valid,clock,2,0.9854905122883793,1,j,1,change,0.6723937415299588,0.683926077750219,0,0,0,0.3873935073906978,0,0,4.714066742745672
18,23,female,42,15,65,left,change,valid,clock,1,0.6973120979964733,0,f,0,same,0.851072639810809,0.6836696441775013,0,0,0,0.3874435423185787,0,0,4.369727970358326
18,23,female,43,45,45,left,same,valid,anti,2,0.8174812417128123,1,j,0,change,0.5682749047246034,0.6843412039470045,0,0,0,0.3874573339980998,0,0,4.448620543443212
18,23,female,44,75,75,right,same,valid,anti,2,1.8014521034237987,1,f,1,same,0.4299911925700144,0.684089347066161,0,0,0,0.38747048420282226,0,0,5.241325515054996
18,23,female,45,135,185,left,change,valid,clock,2,1.0654806464262947,1,j,1,change,0.4529710163060372,0.683836764679873,0,0,0,0.38742044927585084,0,0,4.517751494472577
18,23,female,46,15,15,left,same,valid,clock,1,0.8494612585327559,0,j,0,change,0.9691781634755898,0.6835828129316646,0,0,0,0.3875243679722189,0,0,4.89680873378893
18,23,female,47,105,55,right,change,valid,anti,1,0.8574694129438285,0,j,1,change,0.6592666290762281,0.6842484979546898,0,0,0,0.3873383406753419,0,0,4.605399859260615
18,23,female,48,75,75,right,same,catch,anti,1,1.0174480775349366,0,f,1,same,0.7266620737154881,0,0,0,0,0.38742044927585084,0,0,6.080471559954276
18,23,female,49,105,155,right,change,valid,clock,1,0.9043915913098317,0,j,1,change,0.548491543135242,0.6848961996258252,0,0,0,0.38742301516867883,0,0,4.37252126644853
18,23,female,50,75,125,right,change,valid,clock,2,0.8574540175795846,1,j,1,change,0.4862529034689942,0.68553737264471,0,0,0,0.38748427588234335,0,0,3.9713293446520765
18,23,female,51,75,125,left,change,valid,clock,2,0.6974320535282459,1,f,0,same,0.5972403171181213,0.685304974430999,0,0,0,0.38747721967502,0,0,3.9276527011488724
18,23,female,52,135,135,right,same,valid,anti,2,1.0574417012903723,1,f,1,same,0.596619691565138,0.6850747214456747,0,0,0,0.3873665655055447,0,0,4.601894206917677
18,23,female,53,45,45,left,same,valid,clock,1,0.8174578279322304,0,j,0,change,0.7267457860016293,0.6848460831672948,0,0,0,0.38743263727064914,0,0,4.5277674607468725
18,23,female,54,45,95,right,change,valid,clock,2,0.8494542023254326,1,j,1,change,0.8029675844227313,0.6854788324228567,0,0,0,0.3874711256767114,0,0,4.386621814843238
18,23,female,55,15,15,left,same,valid,anti,2,0.9774765846159426,1,f,1,same,0.48391024247030145,0.6852498305959294,0,0,0,0.38738580970948533,0,0,4.417507477976869
18,23,female,56,15,15,right,same,valid,clock,2,0.8894892011157935,1,f,1,same,0.46065362294575607,0.6850228119778776,0,0,0,0.38736303740188305,0,0,4.113713675764302
18,23,female,57,105,55,left,change,valid,anti,2,0.6334591904214903,1,j,1,change,0.925625324345674,0.684797259893165,0,0,0,0.3875080103998698,0,0,4.377657865009496
18,23,female,58,135,135,left,same,valid,anti,1,0.8894696361749084,0,f,1,same,0.6717497021963936,0.6845571006268665,0,0,0,0.387423977378603,0,0,4.6405080213053225
18,23,female,1,165,115,right,change,valid,anti,1,0.8158695396978146,0,j,1,change,0.6147519005262438,0.6851806583212278,0,0,0,0.3874708049397668,0,0,4.753428835899285
18,23,female,2,45,355,right,same,catch,clock,1,0.9134347631134005,0,j,0,change,0.8233032546431787,0,0,0,0,0.3874675975730497,0,0,5.92412748386505
18,23,female,3,15,155,right,same,catch,anti,1,1.1923374714788224,0,f,1,same,0.7190612549402431,0,0,0,0,0.38737265950476285,0,0,6.782689005337488
18,23,female,4,45,45,right,same,valid,clock,2,0.7444421137570316,1,f,1,same,0.6076751655473345,0.685852499778873,0,0,0,0.3874149967505218,0,0,4.512358627272079
18,23,female,5,75,75,right,same,valid,clock,2,0.913508853294843,1,f,1,same,0.4542892442223092,0.6856248029150465,0,0,0,0.387434561691407,0,0,4.394464148370389
18,23,female,6,105,55,left,change,valid,anti,1,0.9214220696358097,0,f,0,same,0.9776715925399913,0.6853998778729249,0,0,0,0.38740986496395635,0,0,4.585977647216168
18,23,female,7,75,25,right,change,valid,anti,1,1.3854222595127794,0,f,0,same,0.8713143341738032,0.6860682586099757,0,0,0,0.3874631072585544,0,0,5.366090495223943
18,23,female,8,75,75,left,same,valid,clock,1,0.857482883884586,0,j,0,change,1.036399768812771,0.6867524321918046,0,0,0,0.38748331367241917,0,0,4.62278763829363
18,23,female,9,135,85,right,change,valid,anti,1,1.1293973806077702,0,f,0,same,1.1222151232504984,0.6874656986467775,0,0,0,0.386634644312835,0,0,5.603000107125808
18,23,female,10,135,185,left,change,valid,clock,2,0.8574120010689512,1,j,1,change,0.829592901711294,0.6882221037517973,0,0,0,0.38745829620802397,0,0,5.162307533913008
18,23,female,11,135,135,right,same,valid,clock,2,0.7294402951811207,1,f,1,same,0.47518556222894404,0.687950657606075,0,0,0,0.3874339202175179,0,0,4.069260849400962
18,23,female,12,75,125,right,change,valid,clock,2,1.153472199503085,1,j,1,change,0.48691490405690274,0.6876875739829389,0,0,0,0.3874643902054231,0,0,4.644505363038661
18,23,female,13,75,125,left,change,valid,clock,2,0.7934548540615651,1,f,0,same,0.854511578916572,0.6874321411355979,0,0,0,0.3875144251342135,0,0,4.954618961569395
18,23,female,14,135,135,right,same,valid,anti,2,0.7054556033017434,1,f,1,same,0.6214004519824812,0.6871836839498636,0,0,0,0.38738260234185873,0,0,4.296107988205222
18,23,female,15,15,15,left,same,valid,anti,2,0.7614828556597786,1,f,1,same,0.5639699764778925,0.6869415605730398,0,0,0,0.3874525229466599,0,0,4.228533893211534
18,23,female,16,15,65,left,change,valid,clock,1,1.0973824034863355,0,j,1,change,0.9636938863095565,0.6867051592905217,0,0,0,0.3874047331755719,0,0,4.942980067496137
18,23,female,17,45,45,left,same,valid,anti,2,0.881465651342296,1,f,1,same,0.6268648434706847,0.6873993374344869,0,0,0,0.38739382812764234,0,0,4.469578122163512
18,23,female,18,105,105,left,same,valid,clock,1,1.353458921003039,0,j,0,change,0.9054830583663716,0.6871543330716123,0,0,0,0.38742846769309836,0,0,4.902471340570628
18,23,female,19,75,75,right,same,catch,anti,1,0.9694754864121933,0,j,0,change,1.1039379412941344,0,0,0,0,0.38744642895017023,0,0,6.501764051956343
18,23,female,20,165,165,right,same,valid,anti,2,0.7362113680628681,1,f,1,same,0.5264008015856234,0.6878711689160822,0,0,0,0.38743327874362876,0,0,4.8481863300730765
18,23,female,21,45,45,left,same,catch,clock,1,0.6814651381646399,0,f,1,same,0.631629066701862,0,0,0,0,0.38749870903484407,0,0,5.612432011834244
18,23,female,22,15,65,right,change,valid,clock,2,0.9923276569352311,1,f,0,same,0.7799957791048655,0.687615561295231,0,0,0,0.38734443467274104,0,0,4.857544144598251
18,23,female,23,105,155,left,change,valid,clock,1,0.9854629289293371,0,f,0,same,0.8472526654823014,0.6873672619172148,0,0,0,0.38742461885249213,0,0,4.820659421866367
18,23,female,24,45,95,left,change,valid,clock,2,0.8094342781605519,1,f,0,same,0.9144765159780945,0.6880925651807939,0,0,0,0.38747689893807546,0,0,4.742975384740021
18,23,female,25,15,15,right,same,valid,anti,3,1.201480071666083,1,f,1,same,0.833087969744156,0.6878327551125204,0,0,0,0.3874015258088548,0,0,5.215432439696997
18,23,female,26,75,215,left,change,catch,anti,1,0.6974471281555452,0,j,1,change,0.8298860550730751,0,0,0,0,0.3874143552775422,0,0,6.064893698228843
18,23,female,27,45,95,right,change,valid,clock,2,0.8802827743202215,1,j,1,change,0.6399646933004988,0.6875807497430872,0,0,0,0.3874615035747411,0,0,4.805922852555341
18,23,female,28,165,165,left,same,valid,clock,1,1.4015004705197498,0,j,0,change,0.6436198089559184,0.6873358900959095,0,0,0,0.3874393727419374,0,0,5.063823079060057
18,23,female,29,105,185,left,same,catch,clock,1,0.937438378457955,0,j,0,change,0.37752219337744464,0,0,0,0,0.3874586169449685,0,0,5.830826775871174
18,23,female,30,15,325,right,change,valid,anti,2,0.8643630072529049,1,j,1,change,0.6469804883035977,0.6880513089870288,0,0,0,0.38741403454059764,0,0,5.0043107015089845
18,23,female,31,135,135,left,same,valid,anti,2,1.033505119919937,1,f,1,same,1.0629237332977937,0.6877951883671556,0,0,0,0.38744225937261945,0,0,4.921828763797748
18,23,female,32,45,45,left,same,valid,clock,2,0.8094445417355018,1,j,0,change,0.7818762584902288,0.6875466991200129,0,0,0,0.38746503167931223,0,0,4.991607603000375
18,23,female,33,15,75,left,change,catch,anti,1,0.745435435377658,0,j,1,change,0.734767732088585,0,0,0,0,0.3874999919817128,0,0,5.908794023520386
18,23,female,34,165,165,left,same,valid,anti,2,1.080372773045383,1,f,1,same,0.7955803762997675,0.687305198558532,0,0,0,0.38732839783642703,0,0,5.100131437907294
18,23,female,35,15,15,right,same,valid,clock,2,0.7614382732554077,1,f,1,same,0.5190376487171307,0.6870700758096817,0,0,0,0.38744161789873033,0,0,4.1740481015267505
18,23,female,36,15,325,left,change,valid,anti,2,1.8014565937373845,1,j,1,change,0.5201660004968289,0.6868407489290029,0,0,0,0.3874724086235801,0,0,4.983953862663839
18,23,female,37,75,25,left,change,valid,anti,2,0.8334722123327083,1,f,0,same,0.7838314695327426,0.6866166622203992,0,0,0,0.3874037709656477,0,0,4.6298056784507935
18,23,female,38,45,355,left,change,valid,anti,1,0.8410399952281296,0,f,0,same,1.3320904785450693,0.6863972837410597,0,0,0,0.3874708049397668,0,0,5.027600356915173
18,23,female,39,165,215,right,change,valid,clock,2,1.0734272193858487,1,j,1,change,0.6099600939360244,0.6870431862695773,0,0,0,0.38739062076001574,0,0,4.84310104938595
18,23,female,40,165,165,right,same,valid,clock,3,0.9374213794126263,1,f,1,same,0.6924561440646357,0.6868168799759348,0,0,0,0.3874647109423677,0,0,4.878076105691434
18,23,female,41,165,215,left,change,valid,clock,3,1.25746081719808,1,j,1,change,0.704329496682476,0.6865957031203839,0,0,0,0.3874175626442593,0,0,4.881753031442713
18,23,female,42,165,325,right,change,catch,clock,2,0.9774307192637934,1,j,1,change,0.6828940202485683,0,0,0,0,0.38738164013193455,0,0,6.361286821378599
18,23,female,43,105,55,right,change,valid,anti,2,0.9361188675939047,1,j,1,change,0.5076999264238111,0.6863791357692681,0,0,0,0.3873267941544327,0,0,4.799496892383104
18,23,female,44,45,355,right,change,valid,anti,1,0.72146581812558,0,j,1,change,0.5497828291681799,0.6861666787183629,0,0,0,0.3874489948429982,0,0,4.0408698764713336
18,23,female,45,165,115,left,change,valid,anti,1,1.0974792659744708,0,f,0,same,0.7579486577487842,0.6867935102912288,0,0,0,0.3874355239004217,0,0,4.702622535860428
18,23,female,46,105,15,right,change,catch,clock,2,1.0654225930793473,1,j,1,change,0.633999311057778,0,0,0,0,0.3874461082123162,0,0,6.283025778893716
18,23,female,47,165,115,left,change,catch,clock,1,0.6963819615120883,0,j,1,change,0.7028380709361954,0,0,0,0,0.38747625746509584,0,0,6.018363139397479
18,23,female,48,105,105,right,same,valid,clock,1,0.8634341537126602,0,f,1,same,0.7442878393940191,0.6874488658605276,0,0,0,0.3874063368584757,0,0,4.774963740714156
18,23,female,49,105,105,right,same,valid,anti,2,0.7774879386961402,1,f,1,same,0.4783310272359813,0.6881448922226637,0,0,0,0.387450598525902,0,0,4.175944938486282
18,23,female,50,135,85,left,change,valid,anti,1,0.8895058794241777,0,j,1,change,0.5732059110487171,0.6878950641181503,0,0,0,0.3874489948429982,0,0,4.353669965763402
18,23,female,51,75,75,right,same,valid,anti,2,0.8494410521198006,1,f,1,same,0.38410210717484006,0.688622130895207,0,0,0,0.387500954191637,0,0,4.048078434239869
18,23,female,52,135,135,left,same,valid,clock,1,1.0734724432641087,0,j,0,change,1.059903355611823,0.6883589168628166,0,0,0,0.3873957525465812,0,0,4.8616232741969725
18,23,female,53,105,105,left,same,valid,anti,1,0.8414213511859998,0,f,1,same,0.8981397911757085,0.6891227510268458,0,0,0,0.387368169191177,0,0,5.193712469794264
18,23,female,54,75,75,left,same,valid,anti,2,0.7134191753084451,1,f,1,same,0.8148861609151936,0.6899593680257025,0,0,0,0.3873947903375665,0,0,4.637456211417884
18,23,female,55,105,155,right,change,valid,clock,1,0.9534338393914368,0,f,0,same,1.4461104578767845,0.6896507147466577,0,0,0,0.38751025555575325,0,0,5.483371404781792
18,23,female,56,45,45,right,same,valid,anti,3,0.8734324794677377,1,f,1,same,1.1009518824357656,0.6905012410352401,0,0,0,0.3875015956655261,0,0,4.9906341670575785
18,23,female,57,15,15,left,same,valid,clock,2,0.9694411675845913,1,f,1,same,0.6567578264584881,0.6902024215266577,0,0,0,0.3874855588292121,0,0,5.069103046933378
18,23,female,58,135,185,right,change,valid,clock,3,0.95344025412669,1,j,1,change,0.5785946086725744,0.689893521324634,0,0,0,0.3875237264983298,0,0,4.301929680397734
