subject,age,gender,ntrial,memory_ori,test_ori,cue,type,trial_type,which_change,pas,pas_rt,vis,test_key,test_acc,test,test_rt,contrast,fix_dur,cue_dur,jitter_dur,target_dur,mask_dur,retention_dur,trial_dur
19,27,female,1,105,105,right,same,valid,anti,1,3.279935095509245,0,f,0,change,13.135502717931558,0.5,0,0,0,0.38745665229362203,0,0,19.200400793890367
19,27,female,2,165,115,left,change,valid,anti,2,0.9213756313720296,1,f,1,change,2.344295615002011,0.6571452603159259,0,0,0,0.38751630951446714,0,0,6.521944876727503
19,27,female,3,15,65,left,change,valid,clock,1,3.6813852150162347,0,j,0,same,1.6890248674390023,0.6071840821787083,0,0,0,0.38743195548613585,0,0,8.087715680098881
19,27,female,4,135,135,right,same,valid,anti,1,1.9773818947396649,0,f,0,change,1.6350341200814,0.689912631090831,0,0,0,0.3874672366391678,0,0,6.781904104544992
19,27,female,5,165,215,right,change,valid,clock,1,0.9533307332185359,0,f,1,change,2.5585048104248926,0.7585575768774041,0,0,0,0.38743901171710604,0,0,6.63421912546346
19,27,female,6,105,105,right,change,catch,clock,1,0.6414716474246234,0,j,0,same,1.263246148260805,0,0,0,0,0.38753106345120614,0,0,6.142947361803635
19,27,female,7,45,45,left,same,valid,clock,1,0.7043936581167145,0,j,1,same,1.1335603301295123,0.8212103816459584,0,0,0,0.3875089325465524,0,0,5.4872968607469375
19,27,female,8,15,15,right,same,valid,clock,1,0.6895066155366294,0,j,1,same,0.6519568851490476,0.8785116871763741,0,0,0,0.38750989475920505,0,0,4.53050793312741
19,27,female,9,45,135,left,change,catch,clock,2,4.0890525150334724,1,f,1,change,3.213642451821215,0,0,0,0,0.3874075794174132,0,0,11.773925753060212
19,27,female,10,105,105,left,same,valid,anti,2,3.1198006807335332,1,j,1,same,2.2724663963062994,0.9333331324870138,0,0,0,0.3874152771240915,0,0,8.529487666351088
19,27,female,11,15,65,right,change,valid,clock,3,2.2334419137523582,1,f,1,change,1.599834755912525,0.9128796346304997,0,0,0,0.38742201261629816,0,0,7.114867734167092
19,27,female,12,165,165,left,same,catch,clock,1,6.193308961541334,0,j,1,same,2.9052701060873005,0,0,0,0,0.38746274631012056,0,0,13.67677653431383
19,27,female,13,45,95,right,change,valid,clock,3,4.656418667963408,1,f,1,change,2.5217796967872346,0.896531206909861,0,0,0,0.38747750024685956,0,0,9.965382454105566
19,27,female,14,15,15,left,same,valid,anti,3,3.161338464281471,1,j,1,same,2.386649676119305,0.8833445108804816,0,0,0,0.3874454264723681,0,0,8.44268705104787
19,27,female,15,165,165,right,same,valid,anti,3,2.0574524698731693,1,j,1,same,0.8703468971189068,0.8714205783407655,0,0,0,0.38746691590131377,0,0,6.0664677664981355
19,27,female,16,135,185,left,change,valid,clock,2,2.809531171218623,1,j,0,same,2.0175780322870196,0.8609843290697772,0,0,0,0.3874707647537434,0,0,8.076684546726938
19,27,female,17,15,15,left,same,valid,clock,3,4.649305025447575,1,j,1,same,1.6799107835877294,0.8516075736016828,0,0,0,0.3874672366391678,0,0,9.02613659835879
19,27,female,18,45,95,left,change,valid,clock,3,1.361446103869639,1,f,1,change,1.0850343125239306,0.8430026056150621,0,0,0,0.38744318130829924,0,0,5.216184939951745
19,27,female,19,75,25,right,change,valid,anti,3,1.1374374080287453,1,f,1,change,0.8377208119027273,0.8349711160768504,0,0,0,0.3874188052386671,0,0,5.236515864330613
19,27,female,20,105,155,left,change,valid,clock,3,1.625378630911655,1,f,1,change,1.7767405475378837,0.8273806290006545,0,0,0,0.3874765380332974,0,0,6.401636147400495
19,27,female,21,135,135,left,same,valid,anti,2,1.729309849342826,1,f,0,change,2.5098771189541367,0.8206052310305789,0,0,0,0.38749449934766744,0,0,7.444581328187269
19,27,female,22,105,105,left,same,valid,clock,2,4.5214515820707675,1,f,0,change,1.7149667779840456,0.8140369682972988,0,0,0,0.3874646707372449,0,0,9.07371643960505
19,27,female,23,15,15,right,same,valid,anti,2,2.5693451048364295,1,f,0,change,5.2968424651644455,0.8076235433440986,0,0,0,0.3874672366391678,0,0,10.920823320970158
19,27,female,24,165,165,left,same,catch,clock,2,1.3133713642773728,1,j,1,same,1.7871667695162614,0,0,0,0,0.3874159185997996,0,0,7.687376275413953
19,27,female,25,15,215,left,same,catch,clock,2,4.38437436253389,1,f,0,change,2.299160116132043,0,0,0,0,0.3874633877858287,0,0,10.99380527113226
19,27,female,26,165,215,left,change,valid,clock,2,4.496445584274625,1,j,0,same,2.466215410036966,0.8017634319774339,0,0,0,0.3874659536886611,0,0,10.363899106168901
19,27,female,27,165,45,right,same,catch,anti,1,1.601026617383468,0,f,0,change,3.3167923530991175,0,0,0,0,0.3874127112212591,0,0,9.35650866697597
19,27,female,28,75,125,left,change,valid,clock,2,2.2323565372125813,1,j,0,same,1.6575941718101603,0.7959186323712499,0,0,0,0.38748616016619053,0,0,6.963037219690705
19,27,female,29,15,325,left,change,valid,anti,3,2.1133548142097425,1,j,0,same,1.183818652310947,0.7905175069426184,0,0,0,0.3875474210763059,0,0,6.16398455070339
19,27,female,30,45,355,right,change,valid,anti,1,1.6012453605280825,0,f,1,change,2.4063663877104773,0.7850583490055463,0,0,0,0.3875102154970591,0,0,6.8485864445956395
19,27,female,31,165,115,right,change,valid,anti,3,1.9612754072413736,1,j,0,same,1.6005907347844186,0.7995297939657313,0,0,0,0.3874919334457445,0,0,6.71117918591608
19,27,female,32,135,185,right,change,valid,clock,2,1.3614396891152865,1,f,1,change,1.3390117813387405,0.7949018911434377,0,0,0,0.3875278560735751,0,0,5.633908972061363
19,27,female,33,75,25,left,change,valid,anti,1,4.4734137273189845,0,j,0,same,1.7820333618574296,0.7902663827841442,0,0,0,0.3875079703329902,0,0,9.608938576155197
19,27,female,34,165,165,right,same,valid,clock,2,1.9054150795491296,1,j,1,same,1.4741462923357176,0.8019779856580471,0,0,0,0.38750444221750513,0,0,6.238240791939461
19,27,female,35,75,75,right,same,valid,clock,2,1.009427444631001,1,j,1,same,0.9902928720530326,0.7978807739880758,0,0,0,0.38749097123218235,0,0,5.060180344420587
19,27,female,36,45,355,left,change,valid,anti,3,1.8254702336125774,1,f,1,change,0.9316886329252156,0.7940652354685371,0,0,0,0.38745504860435176,0,0,5.757457794119546
19,27,female,37,165,165,left,same,valid,clock,3,1.3774162778254322,1,f,0,change,0.9800340751780823,0.7901845914045994,0,0,0,0.387450558276214,0,0,5.047850543906861
19,27,female,38,75,75,left,same,valid,anti,4,2.3053901261528154,1,j,1,same,1.6000326511029925,0.7864760341741526,0,0,0,0.3874252199939292,0,0,6.783935015965653
19,27,female,39,105,55,right,change,valid,anti,2,2.585326825350421,1,j,0,same,4.673350092949477,0.7829958250629467,0,0,0,0.3874451057345141,0,0,10.099616974980563
19,27,female,40,105,45,right,same,catch,anti,2,3.273242581656632,1,f,0,change,3.4258005293459064,0,0,0,0,0.3874736513944299,0,0,11.227585242470923
19,27,female,41,135,135,right,same,valid,clock,3,1.4401785611189553,1,j,1,same,1.127129538279405,0.7793979068102768,0,0,0,0.38749866893886065,0,0,5.348758680766878
19,27,female,42,15,95,right,change,catch,clock,1,3.689334379365391,0,f,1,change,2.9201189808745767,0,0,0,0,0.3875005933650755,0,0,11.55511365021357
19,27,female,43,45,45,right,same,valid,anti,3,1.6804900359611565,1,f,0,change,1.5651578735350995,0.7759622692677712,0,0,0,0.3874633877858287,0,0,6.659559652731332
19,27,female,44,45,215,right,same,catch,anti,1,1.329400553978303,0,f,0,change,2.7692179643927375,0,0,0,0,0.3875089325456429,0,0,8.669252988955122
19,27,female,45,135,85,left,change,valid,anti,2,1.622741204409067,1,j,0,same,1.5241884372753702,0.7727086485146553,0,0,0,0.3874175222881604,0,0,6.233971451774778
19,27,female,46,45,45,left,same,valid,anti,3,1.705494430068029,1,j,1,same,0.570068047721179,0.7693154835470136,0,0,0,0.38741848450172256,0,0,5.73594238523674
19,27,female,47,165,165,left,same,valid,anti,1,1.4413508575889864,0,j,1,same,2.34964167178714,0.766053672741772,0,0,0,0.3874191259765212,0,0,6.681693443992117
19,27,female,48,105,155,right,change,valid,clock,1,3.961392476518995,0,f,1,change,2.1623462222860326,0.7749780764256644,0,0,0,0.3874483131112356,0,0,9.371498024896937
19,27,female,49,75,75,left,same,valid,clock,2,2.4173490896819203,1,j,1,same,2.4305060728484023,0.782740872717738,0,0,0,0.3875143850882523,0,0,8.00177656638698
19,27,female,50,105,55,left,change,valid,anti,2,0.9373134108145678,1,j,0,same,1.7914781263270925,0.7798859330472611,0,0,0,0.387503800741797,0,0,5.686380705444208
19,27,female,51,75,125,right,change,valid,clock,2,1.5773770195255565,1,j,0,same,1.8928280473610357,0.7771305521308739,0,0,0,0.3875201583678063,0,0,6.686852510671088
19,27,female,52,105,105,right,same,valid,clock,2,3.329420439718888,1,j,1,same,1.6549490476018036,0.7745254501304673,0,0,0,0.38744959606265184,0,0,8.376738879701406
19,27,female,53,135,135,left,same,valid,clock,2,3.7133268458783277,1,f,0,change,6.676460928369124,0.7718361278737187,0,0,0,0.38745440712864365,0,0,13.518696765551795
19,27,female,54,135,85,right,change,valid,anti,2,1.46533755082055,1,j,0,same,3.3032886524269998,0.7691811178432131,0,0,0,0.3874377287665993,0,0,7.950957594620377
19,27,female,55,75,75,right,same,valid,anti,3,1.6412836951039935,1,j,1,same,1.7535383788381296,0.7666353248874762,0,0,0,0.38743195548704534,0,0,6.713772350609361
19,27,female,56,15,325,right,change,valid,anti,2,2.801360697822929,1,j,0,same,2.242561129407477,0.7642093427611223,0,0,0,0.3874787831982758,0,0,8.452787724211703
19,27,female,57,45,45,right,same,valid,clock,2,2.3694148332233453,1,f,0,change,1.6699987042202338,0.7616877463893454,0,0,0,0.38741720155030634,0,0,7.068371986509192
19,27,female,58,105,215,left,same,catch,clock,2,3.3774037690536716,1,f,0,change,1.3536861747916191,0,0,0,0,0.3875089325465524,0,0,9.309619374099384
19,27,female,1,105,105,left,same,valid,anti,3,2.847632570534188,1,j,1,same,2.194171746083157,0.7591831725166589,0,0,0,0.38750091410202003,0,0,8.361416916734925
19,27,female,2,105,55,left,change,valid,anti,3,2.209421222319179,1,f,1,change,1.1487312256158475,0.7567691136170146,0,0,0,0.38745569008005987,0,0,6.441883602988128
19,27,female,3,165,165,right,same,valid,clock,4,1.8254756861542774,1,j,1,same,0.5210702248887173,0.7544630960973553,0,0,0,0.38744959606265184,0,0,5.429874860959899
19,27,female,4,135,85,right,change,valid,anti,3,2.00951083644577,1,f,1,change,1.17990308588287,0.7520631331839235,0,0,0,0.38743548360253044,0,0,5.919906973223988
19,27,female,5,165,165,left,same,catch,clock,1,1.4974206270298964,0,f,0,change,1.7218433953039494,0,0,0,0,0.3874377287656898,0,0,7.655339064703185
19,27,female,6,165,165,left,same,valid,anti,2,3.5602586044315103,1,f,0,change,0.9669903124377015,0.7496762508820802,0,0,0,0.3874540863907896,0,0,7.473322958536301
19,27,female,7,105,155,left,change,valid,clock,1,1.8654065735845506,0,f,1,change,2.034436649804775,0.7473369518055955,0,0,0,0.3875201583668968,0,0,6.799273978032943
19,27,female,8,15,95,right,change,catch,clock,1,1.1214467068575686,0,j,0,same,1.228506722021848,0,0,0,0,0.38754228927155054,0,0,7.188001072547195
19,27,female,9,45,45,left,same,valid,anti,1,0.8884076397171157,0,j,1,same,1.7401841419559787,0.7537211352700384,0,0,0,0.38755287361800583,0,0,5.627487160868441
19,27,female,10,105,105,left,same,valid,clock,2,1.4815280716093184,1,j,1,same,1.451796644570095,0.7594030891647641,0,0,0,0.3874884053302594,0,0,5.937817289817758
19,27,female,11,165,165,left,same,catch,clock,1,0.9613677797124183,0,j,1,same,2.2014370975548445,0,0,0,0,0.38746980254109076,0,0,8.029653808504008
19,27,female,12,15,15,right,same,valid,clock,2,1.008489607454976,1,j,1,same,0.8172878929199214,0.7573453330856883,0,0,0,0.3874422190947371,0,0,5.261731624614185
19,27,female,13,45,215,right,same,catch,anti,1,0.937312127864061,0,j,1,same,1.4548212015351965,0,0,0,0,0.3875047629553592,0,0,7.000805693222901
19,27,female,14,45,45,left,same,valid,clock,3,3.712128569651213,1,j,1,same,0.8577197727117891,0.7553815391065679,0,0,0,0.38748616016619053,0,0,8.165452567377542
19,27,female,15,105,105,right,same,valid,clock,1,0.9213195022666696,0,j,1,same,1.8562052490651695,0.7534789194920155,0,0,0,0.38747044401679887,0,0,5.845108364455882
19,27,female,16,45,95,left,change,valid,clock,2,2.5533710820282067,1,j,0,same,3.3261174823883266,0.7586895494324877,0,0,0,0.38753459156578174,0,0,8.793448418314256
19,27,female,17,135,135,right,same,valid,anti,2,1.1613621988753948,1,j,1,same,1.4374631953432981,0.7568138408145193,0,0,0,0.3875371574677047,0,0,5.408485502011899
19,27,female,18,165,165,left,same,valid,clock,2,1.2093715079681715,1,f,0,change,2.4022763399461837,0.755013787152955,0,0,0,0.3874906504943283,0,0,7.113885314444815
19,27,female,19,165,215,left,change,valid,clock,2,0.8973353749361195,1,j,0,same,1.1644191503528418,0.753262117331852,0,0,0,0.38748968828076613,0,0,5.303849943486057
19,27,female,20,135,85,left,change,valid,anti,3,0.7293768835324954,1,j,0,same,1.5176364065564485,0.7514113144848569,0,0,0,0.38750091410292953,0,0,5.526447713973539
19,27,female,21,135,135,left,same,valid,anti,2,2.56943170402792,1,f,0,change,2.168403996136476,0.7495531037586255,0,0,0,0.3875307427133521,0,0,7.875084514396804
19,27,female,22,105,55,right,change,valid,anti,3,3.2573776096824076,1,f,1,change,1.4688294226853031,0.7477427423135169,0,0,0,0.38749578229817416,0,0,7.515284436649381
19,27,female,23,75,75,right,same,valid,clock,1,1.2814509021072809,0,j,1,same,1.213771388396708,0.7460131999236536,0,0,0,0.3875586468966503,0,0,6.07481143827772
19,27,female,24,75,75,left,same,valid,anti,4,4.145433079352188,1,j,1,same,0.5975472542922944,0.7510027202660035,0,0,0,0.3874300310608305,0,0,8.04531896086155
19,27,female,25,45,45,right,same,valid,clock,2,1.2014005334513058,1,j,1,same,1.5975681022464414,0.749266820012636,0,0,0,0.3874640292615368,0,0,6.113341663962274
19,27,female,26,105,155,right,change,valid,clock,3,2.289431819493984,1,f,1,change,1.203092104334246,0.7475909478443425,0,0,0,0.38742971032206697,0,0,6.742225316985241
19,27,female,27,15,65,left,change,valid,clock,2,1.1932993394084406,1,f,1,change,3.4305759936778486,0.745986178489592,0,0,0,0.3874162393367442,0,0,7.5045733995502815
19,27,female,28,105,215,left,same,catch,clock,1,0.9373858975468465,0,f,0,change,1.3980528652782596,0,0,0,0,0.3875054044310673,0,0,7.157088689119519
19,27,female,29,105,45,right,same,catch,anti,1,1.1285411051076153,0,j,1,same,0.7227260655863574,0,0,0,0,0.38751630951446714,0,0,6.938401353256268
19,27,female,30,75,25,right,change,valid,anti,1,1.0483422348752356,0,j,0,same,0.9386640374723356,0.7444306124705725,0,0,0,0.3873719775283462,0,0,5.054300900759699
19,27,female,31,165,115,right,change,valid,anti,2,1.273422515533639,1,f,1,change,1.993222811382111,0.7486775440305452,0,0,0,0.3874091831066835,0,0,6.26250011225784
19,27,female,32,45,135,left,change,catch,clock,1,0.953372749864684,0,j,0,same,1.8960925161627529,0,0,0,0,0.3875031592660889,0,0,7.624078360080603
19,27,female,33,15,15,left,same,valid,clock,2,3.0964487275050487,1,f,0,change,0.8347187065801336,0.7471263885040599,0,0,0,0.38751759246497386,0,0,7.287968613886733
19,27,female,34,15,215,left,same,catch,clock,1,1.6654503222134736,0,j,1,same,1.3509425840948097,0,0,0,0,0.38742489925607515,0,0,7.468749879722964
19,27,female,35,165,165,right,same,valid,anti,4,1.6082198028616403,1,j,1,same,0.5858579670612016,0.7456343645871706,0,0,0,0.38746274631103006,0,0,4.967866247227903
19,27,female,36,15,325,right,change,valid,anti,2,1.2892615077498704,1,j,0,same,2.5111552588805353,0.7441826850957982,0,0,0,0.38743676655303716,0,0,6.494005090749852
19,27,female,37,135,135,left,same,valid,clock,3,2.081403561215666,1,j,1,same,0.925338025513156,0.7426539586760185,0,0,0,0.38751823394159146,0,0,6.155298010271508
19,27,female,38,135,185,right,change,valid,clock,2,1.1772486602785648,1,f,1,change,1.0970632610305984,0.7411292882376512,0,0,0,0.3875185546794455,0,0,5.599158320001152
19,27,female,39,165,215,right,change,valid,clock,2,0.9134043361182194,1,f,1,change,0.9208746390095257,0.7395879996148296,0,0,0,0.387438690979252,0,0,5.34205173371538
19,27,female,40,165,115,left,change,valid,anti,3,1.3374340723557907,1,j,0,same,1.1918662831503752,0.7380819049658813,0,0,0,0.3874694818032367,0,0,5.669591367279281
19,27,female,41,15,65,right,change,valid,clock,2,2.0093292988804023,1,f,1,change,2.0008307107682413,0.73664075897433,0,0,0,0.38756826902954344,0,0,7.253739802144082
19,27,female,42,45,95,right,change,valid,clock,3,1.201387383203837,1,f,1,change,0.8807516296683389,0.7352468141509583,0,0,0,0.38746274631012056,0,0,5.094375157963441
19,27,female,43,105,105,right,change,catch,clock,1,0.8974072201917807,0,j,0,same,0.6103280120805721,0,0,0,0,0.38746146335961384,0,0,5.924583971066568
19,27,female,44,15,15,left,same,valid,anti,2,0.8642916891722052,1,j,1,same,0.8783451343433626,0.7338839760506739,0,0,0,0.38745504860435176,0,0,5.046132993265928
19,27,female,45,45,45,right,same,valid,anti,2,1.457439383773817,1,j,1,same,1.5312244612568975,0.7324423905481733,0,0,0,0.3874778209847136,0,0,5.934280835405843
19,27,female,46,75,125,left,change,valid,clock,2,1.3213965434733836,1,j,0,same,2.2107125124930462,0.7309996006676456,0,0,0,0.3875227242697292,0,0,6.916665276802632
19,27,female,47,75,25,left,change,valid,anti,3,0.985373396471914,1,f,1,change,1.637710676590359,0.7295365457064079,0,0,0,0.3875249694337981,0,0,6.052766491373404
19,27,female,48,45,355,right,change,valid,anti,2,1.099990634457754,1,f,1,change,0.9943056220199651,0.7281066727777568,0,0,0,0.3874454264723681,0,0,5.1018740065155725
19,27,female,49,75,75,left,same,valid,clock,4,2.2415155243479603,1,j,1,same,0.8739709129349649,0.7267365786676184,0,0,0,0.38740180613876873,0,0,6.6644409605196415
19,27,female,50,15,325,left,change,valid,anti,2,4.20146949206719,1,j,0,same,2.1670152016858992,0.7254103196697884,0,0,0,0.38744029466852226,0,0,9.793359573957787
19,27,female,51,135,185,left,change,valid,clock,1,1.1294497551489258,0,f,1,change,1.4028703462554404,0.7241133727264388,0,0,0,0.3875143850882523,0,0,5.458776860183207
19,27,female,52,75,75,right,same,valid,anti,2,1.0894739644336369,1,j,1,same,1.0340161626163535,0.7276795524571107,0,0,0,0.38748102836234466,0,0,5.573652292056067
19,27,female,53,135,135,right,same,valid,clock,1,0.7934067224068713,0,j,1,same,1.2489848650275235,0.7263938574867167,0,0,0,0.3874996311515133,0,0,5.435826470614302
19,27,female,54,105,105,right,same,valid,anti,3,2.0334567959835113,1,j,1,same,1.1641615979406197,0.7301388542145328,0,0,0,0.38749578229908366,0,0,6.469944627835503
19,27,female,55,75,125,right,change,valid,clock,2,0.7134923465555403,1,j,0,same,1.2044215623009222,0.7288201152004636,0,0,0,0.387515347300905,0,0,4.826335263319379
19,27,female,56,165,45,right,same,catch,anti,1,0.7134484054840868,0,j,1,same,1.2811352961634839,0,0,0,0,0.3874624255722665,0,0,6.517300914872067
19,27,female,57,15,15,right,same,valid,anti,1,0.9521565123231994,0,j,1,same,1.213871137836577,0.727558749837997,0,0,0,0.387441577619029,0,0,5.786440939992644
19,27,female,58,45,355,left,change,valid,anti,1,0.6653832880238042,0,f,1,change,2.2340612583438997,0.7311469617493874,0,0,0,0.38754004410748166,0,0,6.285572382170358
19,27,female,1,135,185,right,change,valid,clock,1,0.7282838092869497,0,f,1,change,0.7994244040373815,0.7344150644339749,0,0,0,0.3874422190947371,0,0,4.345497419343701
19,27,female,2,105,105,right,change,catch,clock,1,0.665464434673595,0,j,0,same,1.1908197158772964,0,0,0,0,0.38748519795262837,0,0,6.392263228187403
19,27,female,3,135,185,left,change,valid,clock,2,1.392430974029594,1,f,1,change,0.9823167657323211,0.7374913097048295,0,0,0,0.3874675573770219,0,0,5.869090567359308
19,27,female,4,165,115,right,change,valid,anti,3,1.5854538374987897,1,f,1,change,1.2833711590046732,0.7363739347822401,0,0,0,0.38748327352641354,0,0,5.786424903105399
19,27,female,5,15,325,right,change,valid,anti,3,1.4014764200028367,1,j,0,same,0.5789556907220685,0.7352876376754096,0,0,0,0.38747814172256767,0,0,5.237296540009083
19,27,female,6,105,105,right,same,valid,anti,3,1.3374651839176295,1,j,1,same,0.7881270583338846,0.734222571236515,0,0,0,0.38749642377388227,0,0,5.106059313390688
19,27,female,7,105,45,right,same,catch,anti,1,0.8094246862865475,0,j,1,same,1.458197287071016,0,0,0,0,0.387530101237644,0,0,6.813937466402422
19,27,female,8,165,165,left,same,catch,clock,1,0.8084457946788461,0,f,0,change,0.8529587415787319,0,0,0,0,0.3874928956583972,0,0,6.626609301651115
19,27,female,9,75,75,right,same,valid,anti,4,2.3042643366561606,1,j,1,same,0.5455447602362256,0.7330957876038154,0,0,0,0.3874717269673056,0,0,6.01752895941172
19,27,female,10,75,75,left,same,valid,anti,3,1.4893104523307557,1,j,1,same,1.1187791310057946,0.7319704445020545,0,0,0,0.3874605011469612,0,0,5.530129141846373
19,27,female,11,75,25,right,change,valid,anti,2,1.6973746332359951,1,f,1,change,1.6098995064494375,0.7308362719989534,0,0,0,0.38752464869594405,0,0,6.574492304218438
19,27,female,12,105,105,right,same,valid,clock,1,1.0094662538986086,0,f,0,change,0.9687524456248866,0.7296818265043377,0,0,0,0.3874665951634597,0,0,5.204967457948442
19,27,female,13,105,55,right,change,valid,anti,2,1.2414106431042455,1,f,1,change,1.2035565325941207,0.7327577277157149,0,0,0,0.3873697323633678,0,0,5.4100770027189355
19,27,female,14,165,165,left,same,catch,clock,1,0.7694796863952433,0,f,0,change,0.7837576479914787,0,0,0,0,0.3874104660580997,0,0,6.439285627227946
19,27,female,15,15,15,right,same,valid,clock,3,1.4644430132411799,1,j,1,same,0.5172309940435298,0.7316780892126575,0,0,0,0.38751630951446714,0,0,5.102718509006081
19,27,female,16,105,105,left,same,valid,clock,2,1.4494815595035107,1,j,1,same,0.8105915302139692,0.7305868843513176,0,0,0,0.3874486338490897,0,0,5.12034946302083
19,27,female,17,165,165,right,same,valid,clock,4,1.945384776246101,1,j,1,same,0.6130116248186823,0.7294767248976587,0,0,0,0.3874864809040446,0,0,5.3383744754337386
19,27,female,18,165,165,left,same,valid,clock,1,3.041269646791079,0,f,0,change,3.2991168165372073,0.7284002015051958,0,0,0,0.3875159887775226,0,0,9.08893769091992
19,27,female,19,105,105,left,same,valid,anti,3,2.00942584094264,1,j,1,same,1.1211583636213618,0.7314070251245753,0,0,0,0.38750283852914436,0,0,6.577283043364332
19,27,female,20,45,135,left,change,catch,clock,1,0.9134617481749956,0,f,1,change,1.8806919724474938,0,0,0,0,0.3875060459058659,0,0,7.187299298353537
19,27,female,21,105,215,left,same,catch,clock,1,1.0242503396611937,0,f,0,change,0.8300830839061746,0,0,0,0,0.3874342006511142,0,0,6.938833066265033
19,27,female,22,45,45,right,same,valid,anti,2,1.6083933219833852,1,j,1,same,0.6331161083480765,0.7303545129407772,0,0,0,0.3875047629562687,0,0,5.5997760609043326
19,27,female,23,135,135,left,same,valid,clock,2,1.2733006351891163,1,j,1,same,2.5182730709875614,0.7292877518953117,0,0,0,0.38743387991326017,0,0,6.693920287689252
19,27,female,24,105,155,left,change,valid,clock,3,1.8415385533189692,1,f,1,change,1.056083881901941,0.7282611902610396,0,0,0,0.3874771795090055,0,0,6.048814681577824
19,27,female,25,45,355,right,change,valid,anti,3,1.1453092745814502,1,f,1,change,1.3750684775095579,0.7272749533008587,0,0,0,0.38746274631012056,0,0,5.961371307827903
19,27,female,26,15,15,left,same,valid,anti,3,0.8573287933968459,1,f,0,change,0.7908045770564058,0.7263205641350804,0,0,0,0.3874412568811749,0,0,5.217877793787011
19,27,female,27,15,325,left,change,valid,anti,2,0.9133581498817875,1,j,0,same,1.8116643979819855,0.7253902354707858,0,0,0,0.3874489545878532,0,0,5.629602426317433
19,27,female,28,45,95,right,change,valid,clock,3,2.4094201318102932,1,f,1,change,0.9056139369531593,0.7244767291599123,0,0,0,0.38741784302601445,0,0,6.4612542385493725
19,27,female,29,15,65,right,change,valid,clock,2,0.9454162085457938,1,j,0,same,0.8679820977022246,0.7235101882004893,0,0,0,0.38750925328440644,0,0,4.977540659924671
19,27,female,30,45,45,right,same,valid,clock,2,0.7694251609782441,1,f,0,change,1.606945511788581,0.7225459252920045,0,0,0,0.38744478499666,0,0,5.103913577855565
19,27,female,31,45,45,left,same,valid,anti,1,0.8254442538545845,0,f,0,change,0.6539291015624258,0.7215762776763299,0,0,0,0.3875044422184146,0,0,4.345836439143568
19,27,female,32,135,135,right,same,valid,anti,3,1.7294785573985791,1,j,1,same,0.9286092298061703,0.7241316655840847,0,0,0,0.38746146335961384,0,0,5.511606216154178
19,27,female,33,165,215,left,change,valid,clock,2,1.2893885198982389,1,f,1,change,0.9887744995530738,0.7232023521572553,0,0,0,0.38752464869594405,0,0,5.107561969740345
19,27,female,34,165,215,right,change,valid,clock,3,0.8253974261433541,1,f,1,change,0.9602721395649496,0.7222724848385171,0,0,0,0.387453444915991,0,0,4.5733873626759305
19,27,female,35,75,75,right,same,valid,clock,1,1.897445067245826,0,f,0,change,1.654975348096741,0.7213349826376618,0,0,0,0.3874842357390662,0,0,6.593323458887426
19,27,female,36,15,95,right,change,catch,clock,1,1.1374730099187218,0,f,1,change,0.7217753989007178,0,0,0,0,0.3874560108179139,0,0,6.532562258404141
19,27,female,37,45,45,left,same,valid,clock,1,0.8324642409488661,0,f,0,change,0.3225752546977674,0.7238112382272263,0,0,0,0.38747974541092844,0,0,4.446941637276723
19,27,female,38,45,95,left,change,valid,clock,1,0.7213934002438691,0,f,1,change,2.5346990132820792,0.7261406985964685,0,0,0,0.3874505582753045,0,0,6.111631169550492
19,27,female,39,75,25,left,change,valid,anti,1,0.7774737540294154,0,f,1,change,1.3902291093882013,0.7286360163951041,0,0,0,0.3874120697464605,0,0,4.986913579137763
19,27,female,40,105,155,right,change,valid,clock,2,2.0414441281254767,1,f,1,change,0.7090793158786255,0.7311784380213026,0,0,0,0.387430031059921,0,0,5.9131275394411205
19,27,female,41,75,125,right,change,valid,clock,2,0.5613952990106554,1,j,0,same,1.5666525114411343,0.7302845191288381,0,0,0,0.3874871223797527,0,0,5.375679803657476
19,27,female,42,15,15,right,same,valid,anti,3,0.8094820983433237,1,j,1,same,0.619099868754347,0.729377689510303,0,0,0,0.38747974541092844,0,0,4.303939429318234
19,27,female,43,45,355,left,change,valid,anti,4,1.529448536345626,1,f,1,change,1.589230203745501,0.7285049677896512,0,0,0,0.3874451057345141,0,0,5.90125671464466
19,27,female,44,135,135,right,same,valid,clock,4,0.8894606217436376,1,j,1,same,0.6510273871544996,0.7276665605512748,0,0,0,0.38752464869594405,0,0,5.00292929785337
19,27,female,45,135,135,left,same,valid,anti,1,0.9134797094884561,0,f,0,change,1.5462183095060027,0.7268562405161306,0,0,0,0.38751470582610636,0,0,5.113822129108485
19,27,female,46,165,115,left,change,valid,anti,1,0.9854795606661355,0,f,1,change,0.26039158230196335,0.7292214626820835,0,0,0,0.38746146335961384,0,0,4.363904558709692
19,27,female,47,75,125,left,change,valid,clock,1,0.8415193090540924,0,f,1,change,0.2860040951791234,0.7315992909764522,0,0,0,0.38746916106538265,0,0,3.978518268580956
19,27,female,48,165,165,right,same,valid,anti,1,0.9214009696543144,0,f,0,change,0.9865306182664426,0.7337607287189485,0,0,0,0.3875663446033286,0,0,4.631160249559798
19,27,female,49,165,165,left,same,valid,anti,1,0.7134484054840868,0,f,0,change,0.969468973754374,0.7358039911067946,0,0,0,0.38745857671983686,0,0,4.637069521831108
19,27,female,50,15,15,left,same,valid,clock,2,0.4654186974712502,1,j,1,same,2.2484643076622888,0.7379891460720401,0,0,0,0.387471406230361,0,0,5.666322087412482
19,27,female,51,165,45,right,same,catch,anti,1,0.5454623306341091,0,f,0,change,0.7020708753443614,0,0,0,0,0.3874406154063763,0,0,5.628030811350982
19,27,female,52,15,215,left,same,catch,clock,1,0.5682860287924996,0,f,0,change,0.619271142712023,0,0,0,0,0.3875118191854199,0,0,5.971205447923239
19,27,female,53,105,55,left,change,valid,anti,1,0.744565098858402,0,f,1,change,0.2831270775786834,0.7372312149936905,0,0,0,0.387450558276214,0,0,4.080779084819369
19,27,female,54,45,215,right,same,catch,anti,1,0.7934622100374327,0,f,0,change,0.3473772632860346,0,0,0,0,0.38752432795809,0,0,5.487647106368058
19,27,female,55,75,75,left,same,valid,clock,4,2.4082956252650547,1,j,1,same,1.0988244320051308,0.7394379718058014,0,0,0,0.3874252199939292,0,0,6.699279173984905
19,27,female,56,135,85,left,change,valid,anti,4,0.7614557901506487,1,j,0,same,0.9859202543320862,0.7386487032579286,0,0,0,0.38747557582064474,0,0,4.925218069594848
19,27,female,57,135,85,right,change,valid,anti,3,3.217460193237457,1,f,1,change,2.39270905365629,0.7378907497190721,0,0,0,0.3874906504952378,0,0,8.793411533472863
19,27,female,58,15,65,left,change,valid,clock,1,1.8013975826643218,0,f,1,change,3.501720758018564,0.7371589416244305,0,0,0,0.3875384404191209,0,0,8.313780946381485
19,27,female,1,165,215,left,change,valid,clock,1,1.8245012848756232,0,f,1,change,0.13979483047751273,0.7392914095150991,0,0,0,0.3875031592669984,0,0,4.7528503963676485
19,27,female,2,75,125,right,change,valid,clock,2,1.2494441614826428,1,f,1,change,0.8589267088591441,0.7414527788507184,0,0,0,0.3874858394283365,0,0,5.008498908850015
19,27,female,3,105,155,right,change,valid,clock,1,0.5615280844385779,0,f,1,change,1.5674710341745595,0.7406957584776676,0,0,0,0.38746819885273,0,0,5.05537408926557
19,27,female,4,105,45,right,same,catch,anti,1,0.7534264413634446,0,f,0,change,0.5331896214393055,0,0,0,0,0.38751406435039826,0,0,5.628083412341766
19,27,female,5,135,85,right,change,valid,anti,1,1.3283902300718182,0,f,1,change,1.5992131661560052,0.74270844688484,0,0,0,0.38747750024685956,0,0,6.246782358910423
19,27,female,6,45,135,left,change,catch,clock,2,0.9614258332439931,1,j,0,same,1.1349921034379804,0,0,0,0,0.38748391500121215,0,0,6.876055066821209
19,27,female,7,105,55,left,change,valid,anti,2,1.9602936289938953,1,f,1,change,4.394721683027456,0.7445756963311041,0,0,0,0.3874524827042478,0,0,10.100442874683722
19,27,female,8,15,15,left,same,valid,anti,3,1.5214910328140832,1,j,1,same,0.9575404161641927,0.7438814145666305,0,0,0,0.3874912919709459,0,0,5.58182340692656
19,27,female,9,165,45,right,same,catch,anti,1,0.8894391323137825,0,f,0,change,0.6512300934118684,0,0,0,0,0.38742425778218603,0,0,5.908448296433562
19,27,female,10,135,185,right,change,valid,clock,2,1.1284945981351484,1,f,1,change,0.9673472935501195,0.7431890745794194,0,0,0,0.3874601804091071,0,0,5.473365937394192
19,27,female,11,75,25,left,change,valid,anti,3,1.4894438792325673,1,f,1,change,0.9538522527982423,0.7424945778634902,0,0,0,0.38743548360071145,0,0,5.332839824850453
19,27,female,12,105,105,left,same,valid,anti,4,1.4414833222781454,1,j,1,same,1.026465675287909,0.7417938891809868,0,0,0,0.3875153472999955,0,0,5.116516005455196
19,27,female,13,45,45,left,same,valid,anti,4,1.0814603317958245,1,j,1,same,0.5615710632973787,0.7410829904435856,0,0,0,0.38750861180778884,0,0,4.997651878946272
19,27,female,14,75,75,right,same,valid,anti,3,1.089373894255914,1,j,1,same,0.7372580514802394,0.7403578363144175,0,0,0,0.3874265029444359,0,0,4.8133611006705905
19,27,female,15,45,215,right,same,catch,anti,1,1.0814022782633401,0,f,0,change,2.161671069326985,0,0,0,0,0.387518554678536,0,0,8.014569832947018
19,27,female,16,165,115,right,change,valid,anti,1,0.6803113850364753,0,f,1,change,0.49480821807082975,0.7396179362010631,0,0,0,0.38749032975647424,0,0,3.95568398607611
19,27,female,17,105,105,right,change,catch,clock,1,1.0255220648323302,0,f,1,change,0.22491670440649614,0,0,0,0,0.38745921819463547,0,0,5.8151934754259855
19,27,female,18,165,215,right,change,valid,clock,1,0.7684757772422017,0,f,1,change,0.6690509241725522,0.7416067708937535,0,0,0,0.3874637085245922,0,0,4.379092774033779
19,27,female,19,165,165,left,same,catch,clock,1,0.8014065633215068,0,f,0,change,1.6715417735249503,0,0,0,0,0.38744959606265184,0,0,6.922762822132427
19,27,female,20,75,75,left,same,valid,anti,1,2.4076887894443644,0,f,0,change,0.23712975638045464,0.7434166862478351,0,0,0,0.387497706724389,0,0,6.017933088975042
19,27,female,21,75,25,right,change,valid,anti,1,1.7212638221917587,0,f,1,change,0.973051293663957,0.7451248052266046,0,0,0,0.3875586468966503,0,0,5.658533933410581
19,27,female,22,45,355,left,change,valid,anti,3,2.0730756055836537,1,f,1,change,0.9574320068059023,0.7469340750255915,0,0,0,0.3875066873824835,0,0,5.658109597372459
19,27,female,23,45,95,left,change,valid,clock,2,1.0734422088316933,1,j,0,same,0.8431448079609254,0.746317045710822,0,0,0,0.3874181637638685,0,0,5.4095750481410505
19,27,female,24,165,165,right,same,valid,anti,3,1.033446211637056,1,j,1,same,0.5385924488073215,0.7457136292673943,0,0,0,0.38748391500303114,0,0,4.594090984319337
19,27,female,25,135,135,left,same,valid,clock,2,0.953419898312859,1,f,0,change,0.9151568471734208,0.7451206463869493,0,0,0,0.38748391500121215,0,0,5.087257987332123
19,27,female,26,135,185,left,change,valid,clock,3,3.3214600495466584,1,j,0,same,0.8582752904931112,0.7445350777660991,0,0,0,0.38742425778036704,0,0,7.29660030816558
19,27,female,27,45,45,left,same,valid,clock,2,0.8814450646787009,1,f,0,change,1.0924866541026859,0.7439136138326674,0,0,0,0.38746691590131377,0,0,4.993995789354813
19,27,female,28,45,45,right,same,valid,clock,2,0.9534365766758128,1,j,1,same,1.54083761304355,0.7432933745029299,0,0,0,0.3875089325447334,0,0,5.768824098438927
19,27,female,29,135,135,right,same,valid,clock,2,0.9694138068607572,1,j,1,same,0.6379133828468184,0.7426710373216774,0,0,0,0.3874309932725737,0,0,4.787478205869775
19,27,female,30,15,15,left,same,valid,clock,3,0.9374856469858059,1,f,0,change,0.8858600197836495,0.7420433232760275,0,0,0,0.3875143850873428,0,0,4.580866966962276
19,27,female,31,165,115,left,change,valid,anti,2,1.745414733151847,1,j,0,same,1.8458034031555144,0.7414069631656837,0,0,0,0.38746018040728814,0,0,6.608845562208444
19,27,female,32,135,85,left,change,valid,anti,3,1.161522888487525,1,j,0,same,1.0176643107406562,0.7407586650753786,0,0,0,0.3874996311515133,0,0,5.120444722131651
19,27,female,33,15,15,right,same,valid,anti,1,1.2493190737604891,0,f,0,change,2.7451414645911427,0.7400950824314848,0,0,0,0.3874236163064779,0,0,7.474677754784352
19,27,female,34,45,45,right,same,valid,anti,2,1.4495139540176751,1,j,1,same,1.0161776912791538,0.7418695349703387,0,0,0,0.3874588974576909,0,0,5.705403661284436
19,27,female,35,15,95,right,change,catch,clock,1,0.9774887004095945,0,f,1,change,0.08847005528332375,0,0,0,0,0.3874155978610361,0,0,6.142773842680981
19,27,female,36,75,75,right,same,valid,clock,1,1.8157050521331257,0,f,0,change,2.2711532959656324,0.741245150616941,0,0,0,0.3874553693422058,0,0,7.590364011684869
19,27,female,37,75,75,left,same,valid,clock,2,1.0653807862690883,1,j,1,same,1.2544704427346005,0.7429018482085894,0,0,0,0.3874159185997996,0,0,5.230342945629673
19,27,female,38,15,15,right,same,valid,clock,3,1.4094342442713241,1,j,1,same,1.1688475764422037,0.7423060659269739,0,0,0,0.38745152048977616,0,0,6.0121303016348975
19,27,female,39,15,215,left,same,catch,clock,2,1.945420378136987,1,j,1,same,1.4514120800104138,0,0,0,0,0.38744318130738975,0,0,8.295751956822642
19,27,female,40,165,165,left,same,catch,clock,1,0.8883354737245099,0,f,0,change,1.5868445563755813,0,0,0,0,0.3874511997510126,0,0,7.219265946760061
19,27,female,41,105,105,right,same,valid,clock,2,1.1283964523845498,1,j,1,same,1.045904307251476,0.7417030395934765,0,0,0,0.3874996311515133,0,0,5.527105547096653
19,27,female,42,15,325,left,change,valid,anti,3,1.3934736924475146,1,f,1,change,0.9135576487624348,0.7410897760642512,0,0,0,0.3874688403284381,0,0,5.63596842914194
19,27,female,43,105,105,left,same,valid,clock,3,0.8255154576345376,1,j,1,same,0.856045842405365,0.7404632407704239,0,0,0,0.38746274631012056,0,0,4.683257361253709
19,27,female,44,165,165,right,same,valid,clock,4,3.9614097963567474,1,j,1,same,0.6530900516136171,0.7398203362293538,0,0,0,0.38744606794898573,0,0,7.610054422781104
19,27,female,45,75,125,left,change,valid,clock,2,1.1374656329498976,1,f,1,change,1.2711164111242397,0.7391891152370305,0,0,0,0.38745921819645446,0,0,5.298984351846229
19,27,female,46,105,105,right,same,valid,anti,4,1.3774637470123707,1,j,1,same,0.9000144973470015,0.7385837441629054,0,0,0,0.38749097123218235,0,0,5.602405789701152
19,27,female,47,15,65,right,change,valid,clock,3,1.4414874918693386,1,f,1,change,0.7698902307129174,0.7380008532937626,0,0,0,0.38750219705434574,0,0,5.072762244804835
19,27,female,48,45,355,right,change,valid,anti,2,1.8174963724559348,1,f,1,change,0.8338389229356835,0.7374373288072341,0,0,0,0.3874470301616384,0,0,5.401781120863234
19,27,female,49,165,165,left,same,valid,clock,2,1.2413695886716596,1,f,0,change,2.9359653500596323,0.7368902774417067,0,0,0,0.38742714442014403,0,0,6.96284349409143
19,27,female,50,105,55,right,change,valid,anti,2,1.2813447379121499,1,f,1,change,0.9899987555363623,0.7363569949867015,0,0,0,0.3875496662385558,0,0,5.259824838700297
19,27,female,51,15,65,left,change,valid,clock,3,2.465370586807694,1,j,0,same,1.5533938544085686,0.7358349380251125,0,0,0,0.38745665229362203,0,0,6.905460945046798
19,27,female,52,135,135,left,same,valid,anti,2,1.4013776327756204,1,j,1,same,0.8252341706302104,0.7353216984353047,0,0,0,0.3874742928692285,0,0,5.409059301844536
19,27,female,53,15,325,right,change,valid,anti,1,1.929445713853056,0,f,1,change,1.5679098034142953,0.734814980225323,0,0,0,0.38747333065657585,0,0,6.354398212592059
19,27,female,54,105,215,left,same,catch,clock,2,1.7614436021158326,1,f,0,change,0.8990853200903075,0,0,0,0,0.38742265409200627,0,0,7.188114934448095
19,27,female,55,135,135,right,same,valid,anti,2,0.8645245447769412,1,j,1,same,0.6926116776758136,0.7362121208948036,0,0,0,0.3875474210763059,0,0,4.978988470118566
19,27,female,56,165,165,left,same,valid,anti,2,0.8014572398842574,1,j,1,same,1.0205076508791535,0.73570434614557,0,0,0,0.3874569730305666,0,0,4.561054354784574
19,27,female,57,105,155,left,change,valid,clock,3,2.0813788644099986,1,f,1,change,2.7583504072717915,0.7352045337309934,0,0,0,0.38750989475920505,0,0,8.076070013201388
19,27,female,58,45,95,right,change,valid,clock,1,1.1373851277749054,0,j,0,same,1.412909758510068,0.734710508452705,0,0,0,0.38753234640171286,0,0,5.673482557638636
19,27,female,1,105,105,right,same,valid,anti,3,1.3444508520715317,1,j,1,same,0.42942614885032526,0.7360742262094895,0,0,0,0.387500593364166,0,0,5.001256329760508
19,27,female,2,75,125,right,change,valid,clock,2,1.729117085955295,1,f,1,change,0.9371995489127585,0.7355799371459304,0,0,0,0.3873880144165014,0,0,5.782465395604959
19,27,female,3,75,75,left,same,valid,clock,3,1.4894490110364131,1,j,1,same,1.0425663895057369,0.7350928242441294,0,0,0,0.3874605011460517,0,0,5.361645923487231
19,27,female,4,105,55,right,change,valid,anti,3,1.4975399414724961,1,f,1,change,1.070917682016443,0.7346108233189502,0,0,0,0.38755704320828954,0,0,6.12167058180421
19,27,female,5,45,355,right,change,valid,anti,2,1.473443555929407,1,f,1,change,0.9515631474896509,0.7340986510179778,0,0,0,0.3874518412285397,0,0,5.700779905908348
19,27,female,6,165,165,right,same,valid,anti,4,1.457491984763692,1,j,1,same,0.5101420483333641,0.7335873091438745,0,0,0,0.387462425573176,0,0,4.597950421642963
19,27,female,7,45,135,left,change,catch,clock,2,1.137423616304659,1,j,0,same,1.1931405742234347,0,0,0,0,0.38752817681051965,0,0,6.923018129378761
19,27,female,8,45,355,left,change,valid,anti,1,1.1443800973247562,0,f,1,change,2.2200655459655536,0.7330744841429286,0,0,0,0.3874188052395766,0,0,6.322125259637687
19,27,female,9,135,135,right,same,valid,anti,2,1.0093992197107582,1,f,0,change,1.4951661613977194,0.7344179936167503,0,0,0,0.38751983762995224,0,0,5.882049334597468
19,27,female,10,105,45,right,same,catch,anti,1,0.9050657961415709,0,f,0,change,1.8127007016464631,0,0,0,0,0.3875631372247881,0,0,7.639718815631568
19,27,female,11,15,95,right,change,catch,clock,1,0.8325222944804409,0,f,1,change,1.4338645178104343,0,0,0,0,0.3874807076244906,0,0,7.437623564217574
19,27,female,12,15,325,left,change,valid,anti,2,0.9441098436982429,1,f,1,change,1.3800937965461344,0.7339171457159239,0,0,0,0.3874582559819828,0,0,5.688301603817308
19,27,female,13,45,45,right,same,valid,clock,4,1.4333394701152429,1,j,1,same,0.556128464448193,0.7334162172941933,0,0,0,0.38747397213228396,0,0,5.128298306633951
19,27,female,14,75,25,left,change,valid,anti,3,2.281379056852529,1,f,1,change,1.3590813044520473,0.7329129954120486,0,0,0,0.3874665951643692,0,0,6.666638334832896
19,27,female,15,15,15,right,same,valid,anti,4,1.1373848070379609,1,j,1,same,0.5160789040510281,0.7324052831639252,0,0,0,0.3874576145062747,0,0,4.4360695898267295
19,27,female,16,165,165,left,same,valid,clock,2,1.4572867126044002,1,j,1,same,3.4099124642543757,0.7318908815081688,0,0,0,0.3874617840974679,0,0,7.94758247129721
19,27,female,17,165,165,left,same,valid,anti,1,1.009457593978368,0,j,1,same,1.3931786137200106,0.7313675714900936,0,0,0,0.3874855186913919,0,0,5.757915486885395
19,27,female,18,45,45,left,same,valid,anti,2,0.8814704029609857,1,f,0,change,1.212292466640065,0.7327575757188929,0,0,0,0.38743612507823855,0,0,5.625452721331385
19,27,female,19,15,325,right,change,valid,anti,3,1.4014481950798654,1,f,1,change,0.8542795396260772,0.7322581490800371,0,0,0,0.3874906504952378,0,0,5.5361612566757685
19,27,female,20,135,135,left,same,valid,anti,3,1.3134951690481103,1,j,1,same,1.135972598733133,0.7317514479718485,0,0,0,0.38745440712955315,0,0,5.421158812654539
19,27,female,21,105,155,left,change,valid,clock,3,0.7614682989224093,1,f,1,change,0.8609691668389132,0.7312353255713375,0,0,0,0.38747140622945153,0,0,4.934654815620888
19,27,female,22,15,15,right,same,valid,clock,3,2.00143658437446,1,j,1,same,0.7114409079185862,0.7307075931528814,0,0,0,0.3874146356483834,0,0,5.691661331729847
19,27,female,23,15,65,right,change,valid,clock,2,1.2733747256097558,1,f,1,change,2.2564785817739903,0.7301660033430368,0,0,0,0.3874717269682151,0,0,6.731988009540146
19,27,female,24,165,215,right,change,valid,clock,1,1.297474639266511,0,f,1,change,0.5889190881298418,0.7296134762430447,0,0,0,0.3874925749205431,0,0,5.1597902631710895
19,27,female,25,105,155,right,change,valid,clock,1,1.833452113212843,0,f,1,change,2.1044777555543988,0.7311071861344702,0,0,0,0.38749449934766744,0,0,7.018773101135594
19,27,female,26,105,105,left,same,valid,clock,2,1.5294600829038245,1,j,1,same,1.0481250954198913,0.7324632599250223,0,0,0,0.3874723684439232,0,0,5.613704097617301
19,27,female,27,15,15,left,same,valid,clock,2,1.1534675599432376,1,f,0,change,0.9446958315638767,0.7319787886869777,0,0,0,0.3874265029444359,0,0,5.5873740943970915
19,27,female,28,105,105,right,same,valid,clock,3,1.0094595184073114,1,j,1,same,1.0648166085702542,0.7314859998492134,0,0,0,0.38748038688754605,0,0,5.017304763725406
19,27,female,29,135,185,right,change,valid,clock,2,1.345468232209896,1,j,0,same,0.7295154422390624,0.7309828740309315,0,0,0,0.3874823113128514,0,0,5.4811152821275755
19,27,female,30,15,15,left,same,valid,anti,2,1.4254496422490774,1,f,0,change,0.8565522873086593,0.7304673427157642,0,0,0,0.38752593164645077,0,0,5.220508484797392
19,27,female,31,75,75,right,same,valid,anti,3,1.0894762095977057,1,j,1,same,0.6646462326789333,0.7299367268445522,0,0,0,0.3874675573770219,0,0,4.81687670712563
19,27,female,32,75,125,left,change,valid,clock,2,1.4253858154370391,1,f,1,change,2.261575104592339,0.7294079556427311,0,0,0,0.38747493434493663,0,0,6.8667928021313855
19,27,female,33,165,165,left,same,catch,clock,1,1.0175113188361138,0,f,0,change,0.7569038800284034,0,0,0,0,0.38748808459240536,0,0,6.673180101943217
19,27,female,34,15,215,left,same,catch,clock,1,0.8245490747995063,0,f,0,change,1.0762380797805235,0,0,0,0,0.38745023753835994,0,0,6.345815270451567
19,27,female,35,45,95,left,change,valid,clock,2,1.2324270995159168,1,f,1,change,1.0827371887717163,0.7289006809082249,0,0,0,0.38743484212682233,0,0,5.70857126728697
19,27,female,36,45,215,right,same,catch,anti,1,1.8014450518494414,0,f,0,change,0.9579740535991732,0,0,0,0,0.3874877638554608,0,0,7.7649839053810865
19,27,female,37,105,105,right,change,catch,clock,2,1.1123537916992063,1,j,0,same,1.0969096276494383,0,0,0,0,0.3874848772156838,0,0,7.21950842449769
19,27,female,38,45,45,left,same,valid,clock,1,0.7363526088156505,0,f,0,change,1.7620459476074757,0.7284125159325973,0,0,0,0.38748968828076613,0,0,5.643045186818199
19,27,female,39,165,165,right,same,valid,clock,2,0.9533506189600303,1,f,0,change,0.9057117619668134,0.7298271163140457,0,0,0,0.3875313841890602,0,0,4.609959163670283
19,27,female,40,105,215,left,same,catch,clock,2,0.6734831991161627,1,f,0,change,0.9215440186890191,0,0,0,0,0.387574683785715,0,0,6.221045720525581
19,27,female,41,75,25,right,change,valid,anti,2,1.3282988198134262,1,f,1,change,1.6399901597651478,0.7293113311088291,0,0,0,0.38748102836143516,0,0,6.1809207867554505
19,27,female,42,45,45,right,same,valid,anti,2,0.8734814671315689,1,j,1,same,0.6045932211436593,0.7288161763722873,0,0,0,0.38744895458694373,0,0,4.826098558862213
19,27,female,43,75,75,left,same,valid,anti,1,0.9134389757946337,0,f,0,change,0.7531287967340177,0.7283393736835992,0,0,0,0.38738352408654464,0,0,4.668209629058765
19,27,female,44,15,65,left,change,valid,clock,2,1.2572865201618697,1,j,0,same,4.880814494266815,0.7297218484912307,0,0,0,0.3874518412267207,0,0,8.826773391083407
19,27,female,45,165,215,left,change,valid,clock,2,1.145464190914936,1,f,1,change,1.5026268421570421,0.7292184788485438,0,0,0,0.3874672366382583,0,0,5.875275032620266
19,27,female,46,75,75,right,same,valid,clock,3,1.601484310151136,1,j,1,same,0.54604030005612,0.7287349248260326,0,0,0,0.387400523186443,0,0,5.665139527334759
19,27,female,47,105,55,left,change,valid,anti,3,2.1134138299548795,1,j,0,same,1.4018128739007807,0.7282690092412553,0,0,0,0.387494820086431,0,0,6.617157801689245
19,27,female,48,165,115,right,change,valid,anti,3,1.481375400440811,1,f,1,change,2.2903391865820595,0.7278187065372776,0,0,0,0.38746563294989755,0,0,6.729576703150087
19,27,female,49,45,95,right,change,valid,clock,1,1.1774693278493942,0,f,1,change,2.7584238562158134,0.7273821247290084,0,0,0,0.387459538933399,0,0,7.236023211149586
19,27,female,50,135,185,left,change,valid,clock,1,0.7723355353045918,0,f,1,change,0.9954580327485019,0.7286567424597099,0,0,0,0.38748166983896226,0,0,4.7808382930070366
19,27,female,51,165,165,left,same,catch,clock,1,0.4574182150809065,0,f,0,change,1.4351323941264127,0,0,0,0,0.38753459156578174,0,0,6.782435566994536
19,27,female,52,135,85,left,change,valid,anti,3,1.3524327316717972,1,j,0,same,1.3395416400999238,0.7300235694083707,0,0,0,0.3874582559819828,0,0,5.946954146047574
19,27,female,53,135,135,right,same,valid,clock,2,1.7054803176069981,1,j,1,same,0.45360592620636453,0.7295233512485267,0,0,0,0.38749449934766744,0,0,5.561814823984605
19,27,female,54,165,45,right,same,catch,anti,2,2.857363753812024,1,f,0,change,1.5268095061528584,0,0,0,0,0.38752112058136845,0,0,8.809771724530947
19,27,female,55,105,105,left,same,valid,anti,3,1.2262153715491877,1,j,1,same,0.9845070838146057,0.7290432430978416,0,0,0,0.38746691590131377,0,0,5.751837506559241
19,27,female,56,135,135,left,same,valid,clock,2,2.9934008208329033,1,f,0,change,3.6024808423335344,0.7285814589835935,0,0,0,0.38754934550161124,0,0,10.113484392260943
19,27,female,57,135,85,right,change,valid,anti,3,1.721466528450037,1,f,1,change,0.7619006534077926,0.7281360053440831,0,0,0,0.387491933444835,0,0,5.6436026290230075
19,27,female,58,165,115,left,change,valid,anti,3,1.345264563738965,1,f,1,change,1.3813947088547138,0.7277050233489115,0,0,0,0.3874771795108245,0,0,5.610496399396652
19,27,female,1,15,215,left,same,catch,clock,1,0.9202142399863078,0,f,0,change,0.4394193748703401,0,0,0,0,0.38748808459422435,0,0,6.00041022357982
19,27,female,2,15,15,right,same,valid,clock,2,1.0165163903402572,1,j,1,same,0.4087507521307998,0.7272867730705085,0,0,0,0.38748166983714327,0,0,4.571988304618571
19,27,female,3,135,135,right,same,valid,clock,3,1.0494276114150125,1,j,1,same,0.6573526562860934,0.726879619156385,0,0,0,0.38746082188299624,0,0,4.870745574140528
19,27,female,4,165,215,left,change,valid,clock,2,1.001522221353298,1,f,1,change,1.0077926443282195,0.72648201781027,0,0,0,0.38748391500121215,0,0,5.178339489359132
19,27,female,5,105,155,left,change,valid,clock,2,1.3773848455275584,1,f,1,change,0.6877172196400352,0.726092504912748,0,0,0,0.38747204770515964,0,0,5.630599279238595
19,27,female,6,165,45,right,same,catch,anti,1,1.5166658541311335,0,f,0,change,0.9949955289157515,0,0,0,0,0.3874406154063763,0,0,7.0789492759668065
19,27,female,7,75,25,left,change,valid,anti,3,1.2323231804875832,1,f,1,change,1.048268465194269,0.7257096851313513,0,0,0,0.38742714442014403,0,0,5.06668105710196
19,27,female,8,135,135,right,same,valid,anti,3,1.553532413114226,1,j,1,same,1.0900512923817587,0.725332221886692,0,0,0,0.3875191961542441,0,0,6.050523893038189
19,27,female,9,165,165,left,same,catch,clock,1,1.3294290996382188,0,f,0,change,1.879516147861068,0,0,0,0,0.38744863384999917,0,0,8.18603687457653
19,27,female,10,165,165,right,same,valid,clock,4,1.1844309406733373,1,j,1,same,0.8358849090309377,0.7249588280555158,0,0,0,0.3875708349314664,0,0,5.148921102363602
19,27,female,11,105,155,right,change,valid,clock,3,1.985388471144688,1,j,0,same,1.552661610130599,0.7245626266788046,0,0,0,0.3874364458151831,0,0,6.615616977547688
19,27,female,12,165,215,right,change,valid,clock,3,1.057427452329648,1,f,1,change,0.7688048541731405,0.7241679384044604,0,0,0,0.3874742928692285,0,0,4.871226680761538
19,27,female,13,165,165,left,same,valid,clock,2,1.2494287660720147,1,f,0,change,1.1116927511975518,0.7237733140688748,0,0,0,0.3874823113128514,0,0,5.283398742451027
19,27,female,14,45,45,left,same,valid,clock,1,0.761446168018665,0,f,0,change,0.9123968988515117,0.7233773232296397,0,0,0,0.3875390818939195,0,0,5.065543400309252
19,27,female,15,15,15,left,same,valid,anti,1,2.76132877800228,0,f,0,change,2.4201677330129314,0.7244144237861592,0,0,0,0.3875361952559615,0,0,8.38635844624514
19,27,female,16,45,45,right,same,valid,anti,4,1.44146343653847,1,j,1,same,0.5627850556738849,0.7254230511726274,0,0,0,0.38749995189027686,0,0,4.991785585532853
19,27,female,17,45,355,left,change,valid,anti,3,2.7614625256428553,1,f,1,change,0.8792374267577543,0.7250613183966444,0,0,0,0.38743259696093446,0,0,6.4464326264696865
19,27,female,18,45,45,right,same,valid,clock,4,1.3774788216869638,1,j,1,same,0.5057062452779064,0.7247025782570111,0,0,0,0.3875066873824835,0,0,4.794683258644
19,27,female,19,15,95,right,change,catch,clock,2,1.3133822693616821,1,j,0,same,1.9152341449698724,0,0,0,0,0.38743259696275345,0,0,7.843360022990964
19,27,female,20,75,25,right,change,valid,anti,3,2.016421451968199,1,f,1,change,1.806146425762563,0.724320895874494,0,0,0,0.387577570423673,0,0,6.772184788564118
19,27,female,21,45,355,right,change,valid,anti,2,2.4254101915066713,1,f,1,change,1.1003617280312028,0.7239397336657116,0,0,0,0.3875073288581916,0,0,6.528195413962749
19,27,female,22,135,135,left,same,valid,anti,3,3.0894518335280736,1,f,0,change,1.3005732866513426,0.7235577426892696,0,0,0,0.38744895458694373,0,0,7.581323697515472
19,27,female,23,15,65,left,change,valid,clock,2,1.361495497481883,1,f,1,change,1.2139250217769586,0.7231735852504518,0,0,0,0.3875291390249913,0,0,6.174929726359551
19,27,female,24,75,125,left,change,valid,clock,1,1.7692789045649988,0,f,1,change,1.0748967545187043,0.7227859262395271,0,0,0,0.3874322762239899,0,0,6.23645011309236
19,27,female,25,45,95,right,change,valid,clock,2,2.049314390989821,1,j,0,same,3.028078665423891,0.7238067017912482,0,0,0,0.3874342006511142,0,0,8.290789181644868
19,27,female,26,105,55,left,change,valid,anti,2,1.0254049955547089,1,f,1,change,0.9733659373960108,0.7234303189350958,0,0,0,0.3874139941726753,0,0,5.181344160584558
19,27,female,27,135,185,left,change,valid,clock,2,1.025234363072741,1,f,1,change,1.4024383125088207,0.7230513218036059,0,0,0,0.3874765380351164,0,0,5.42502017440529
19,27,female,28,135,85,right,change,valid,anti,3,1.1453580267188954,1,f,1,change,1.1959807069833914,0.7226684133021564,0,0,0,0.3874576145062747,0,0,5.66630797495236
19,27,female,29,165,165,left,same,catch,clock,1,0.8574891622720315,0,f,0,change,0.5797581765673385,0,0,0,0,0.3874223333550617,0,0,6.3144349306494405
19,27,female,30,15,325,left,change,valid,anti,3,2.200082622044647,1,f,1,change,0.6936701122449449,0.7222802875573324,0,0,0,0.3874605011460517,0,0,6.043745742206738
19,27,female,31,135,85,left,change,valid,anti,3,2.1294555284275702,1,j,0,same,0.6089337650901143,0.721885621914156,0,0,0,0.3874781417216582,0,0,5.957144305044494
19,27,female,32,15,325,right,change,valid,anti,3,1.3374969369560858,1,f,1,change,1.0084501567125699,0.721483068918143,0,0,0,0.3874547278664977,0,0,5.44505794448196
19,27,female,33,135,185,right,change,valid,clock,2,1.6334329972432897,1,f,1,change,0.8145208883670421,0.7210712482079917,0,0,0,0.38747268918086775,0,0,5.991219483406894
19,27,female,34,15,15,left,same,valid,clock,3,1.6974782315282937,1,f,0,change,0.7828621481985465,0.7206487382453288,0,0,0,0.38742618220749137,0,0,5.191436494567824
19,27,female,35,45,95,left,change,valid,clock,2,1.345397028429943,1,j,0,same,2.411568112511304,0.7202140678076381,0,0,0,0.38754934550161124,0,0,6.482222789571097
19,27,female,36,75,125,right,change,valid,clock,2,1.113470279799003,1,f,1,change,1.0750029187147447,0.7197665990720434,0,0,0,0.38743901171801554,0,0,5.319307578520238
19,27,female,37,105,215,left,same,catch,clock,1,0.8494421729101305,0,f,0,change,0.87125105683117,0,0,0,0,0.3875012348398741,0,0,6.611004127253182
19,27,female,38,105,55,right,change,valid,anti,2,1.4404649799271283,1,f,1,change,0.7727964354489814,0.7193305109750079,0,0,0,0.3874447849975695,0,0,5.239444520708275
19,27,female,39,165,115,right,change,valid,anti,1,1.0014843742992525,0,f,1,change,1.0499712618984631,0.7189114347113518,0,0,0,0.387459538933399,0,0,5.131426461890442
19,27,female,40,15,15,right,same,valid,anti,1,1.3133617421444796,0,f,0,change,1.7404654289621249,0.7201200661271704,0,0,0,0.38746627442560566,0,0,6.565866703956999
19,27,female,41,105,105,left,same,valid,anti,2,1.8253833136823232,1,j,1,same,1.6838048605877702,0.7212794497883794,0,0,0,0.3875403648453357,0,0,6.813808850565692
19,27,female,42,105,45,right,same,catch,anti,1,1.3934746546619863,0,f,0,change,0.49080348654752015,0,0,0,0,0.38749289565930667,0,0,6.423772504564113
19,27,female,43,45,45,left,same,valid,anti,2,1.3123527011903207,1,f,0,change,0.7573570824679337,0.7208738577048136,0,0,0,0.3875673068178003,0,0,5.430371042255501
19,27,female,44,45,215,right,same,catch,anti,1,0.8814742518152343,0,f,0,change,0.5470650571623992,0,0,0,0,0.387471085492507,0,0,6.095803403155514
19,27,female,45,45,135,left,change,catch,clock,1,1.0722157076816075,0,f,1,change,0.34419554482519743,0,0,0,0,0.3874665951625502,0,0,6.330148514405664
19,27,female,46,75,75,left,same,valid,clock,2,1.32038942694453,1,j,1,same,1.961371949302702,0.7204571030256872,0,0,0,0.3874117490086064,0,0,6.371343750039159
19,27,female,47,165,115,left,change,valid,anti,2,0.8413862028883159,1,f,1,change,1.980475089581887,0.7200277615323445,0,0,0,0.38750283853005385,0,0,6.069726782756334
19,27,female,48,165,165,left,same,valid,anti,1,1.3213519609271316,0,f,0,change,2.1137348884421954,0.7195923656998428,0,0,0,0.3874784624604217,0,0,6.231471301027341
19,27,female,49,15,65,right,change,valid,clock,3,1.473558700781723,1,f,1,change,1.028580299260284,0.7207781621676673,0,0,0,0.387471085490688,0,0,5.862783259542994
19,27,female,50,75,75,right,same,valid,clock,4,1.2974970909090189,1,j,1,same,0.4809754404686828,0.7203640011921788,0,0,0,0.3874345213880588,0,0,5.068024306789084
19,27,female,51,105,105,right,same,valid,clock,4,1.5454430863701418,1,j,1,same,0.5757871225068811,0.7199363907730565,0,0,0,0.3874688403284381,0,0,5.2366807235339365
19,27,female,52,105,105,right,change,catch,clock,2,1.6254617019876605,1,j,0,same,1.252906204736064,0,0,0,0,0.3874842357399757,0,0,7.281576631303324
19,27,female,53,105,105,left,same,valid,clock,2,2.3438600531408156,1,j,1,same,1.4248809742221056,0.719509440408422,0,0,0,0.38747557582064474,0,0,6.8187783612356725
19,27,female,54,165,165,right,same,valid,anti,1,1.2654457677363098,0,j,1,same,1.5010994889998983,0.7190994706846137,0,0,0,0.3874463886841113,0,0,5.903668341774392
19,27,female,55,75,75,right,same,valid,anti,2,2.9694741055591294,1,j,1,same,1.1033939827048016,0.7202725717950796,0,0,0,0.38749032975647424,0,0,7.286231498243069
19,27,female,56,105,105,right,same,valid,anti,3,1.4015097767296538,1,j,1,same,0.37939490899407247,0.719847447571138,0,0,0,0.38741495638532797,0,0,4.991858072264222
19,27,female,57,135,135,left,same,valid,clock,2,2.0413770939358074,1,j,1,same,1.6582702869836794,0.7194291331042454,0,0,0,0.3874210504036455,0,0,6.710470355492362
19,27,female,58,75,75,left,same,valid,anti,3,1.5454164651364408,1,j,1,same,1.9037571861281322,0.7190272559702479,0,0,0,0.3874611426217598,0,0,6.313357251816342
19,27,female,1,135,135,left,same,valid,clock,1,0.7444210876074067,0,f,0,change,0.9250041375162255,0.718640296475788,0,0,0,0.3874014853990957,0,0,4.753023594752449
19,27,female,2,75,125,left,change,valid,clock,1,0.4974581533460878,0,f,1,change,0.33802743719024875,0.7197613066575961,0,0,0,0.3875490247646667,0,0,3.9087459410638985
19,27,female,3,45,45,right,same,valid,clock,3,2.2575026974045613,1,j,1,same,0.40059631562144205,0.7208971703749205,0,0,0,0.3874829527885595,0,0,5.671259203571026
19,27,female,4,105,105,left,same,valid,anti,1,2.6334849567574565,0,f,0,change,1.1106654281920783,0.7205017533962111,0,0,0,0.38747750024776906,0,0,6.983603244840197
19,27,female,5,15,215,left,same,catch,clock,1,0.47343008494317473,0,f,0,change,0.6715623007421527,0,0,0,0,0.3875692312431056,0,0,5.612155896507829
19,27,female,6,45,45,left,same,valid,anti,2,1.9920405720422423,1,f,0,change,1.2316724035972584,0.7215612746270287,0,0,0,0.38744189835597354,0,0,6.383532105206541
19,27,female,7,75,75,right,same,valid,clock,4,1.4014597416389734,1,j,1,same,0.3780577533216274,0.7211885400954605,0,0,0,0.38742971032297646,0,0,4.889573200693121
19,27,female,8,165,165,right,same,valid,clock,4,1.2494297282846674,1,j,1,same,0.5003043801243621,0.7208061399840107,0,0,0,0.38753715746861417,0,0,4.813640142510849
19,27,female,9,15,15,right,same,valid,clock,4,1.3934743339232227,1,j,1,same,0.6597014188155299,0.7204128482251969,0,0,0,0.3874730099196313,0,0,5.223777764664192
19,27,female,10,105,215,left,same,catch,clock,1,0.9934181406715652,0,f,0,change,1.198489196911396,0,0,0,0,0.3874393324549601,0,0,6.704519066575813
19,27,female,11,135,185,left,change,valid,clock,2,1.1437549794536608,1,f,1,change,0.8784067159904225,0.7200073903746615,0,0,0,0.3874293895860319,0,0,5.654318156450245
19,27,female,12,75,75,left,same,valid,anti,3,1.3133986269858724,1,j,1,same,1.1309985977350152,0.7195969183884979,0,0,0,0.38740020244949847,0,0,5.318368458392797
19,27,female,13,165,165,left,same,valid,clock,1,1.1214730073534156,0,f,0,change,0.9351381674077857,0.7192027354303637,0,0,0,0.3875054044310673,0,0,5.5809975072261295
19,27,female,14,135,135,left,same,valid,anti,1,0.5534227208063385,0,f,0,change,0.39911450722502195,0.7203254090898727,0,0,0,0.387494820086431,0,0,3.8191545866138767
19,27,female,15,75,125,right,change,valid,clock,3,1.857444900460905,1,f,1,change,0.777751192181313,0.7213752019586663,0,0,0,0.38746691590131377,0,0,5.64419631459532
19,27,female,16,165,115,right,change,valid,anti,3,1.3934098656372953,1,f,1,change,1.6746757020628138,0.7210070581641257,0,0,0,0.3873928254815837,0,0,5.947358275610895
19,27,female,17,15,65,right,change,valid,clock,3,1.1454558517325495,1,f,1,change,0.762596333583133,0.720628840038841,0,0,0,0.3874265029444359,0,0,5.32980115542523
19,27,female,18,105,105,left,same,valid,clock,3,1.4811694868058112,1,j,1,same,0.9667664374901506,0.7202393541206356,0,0,0,0.3874989896758052,0,0,5.433543459323118
19,27,female,19,165,215,left,change,valid,clock,2,1.3855081704750773,1,f,1,change,1.0204075807014306,0.7198371424128267,0,0,0,0.38751470582610636,0,0,5.155539525794666
19,27,female,20,15,95,right,change,catch,clock,1,0.8654652685927431,0,f,1,change,0.5617198856125469,0,0,0,0,0.38748808459240536,0,0,6.31448560721401
19,27,female,21,105,55,left,change,valid,anti,2,1.3285056956610788,1,j,0,same,1.5283625183292315,0.7194422748120977,0,0,0,0.38745729376933014,0,0,6.167182626790236
19,27,female,22,15,15,right,same,valid,anti,4,1.4735093071685696,1,j,1,same,0.48942720086961344,0.7190628438664658,0,0,0,0.38748166983896226,0,0,5.2597205989332
19,27,female,23,105,155,left,change,valid,clock,3,1.185408549328713,1,f,1,change,0.7273248034198332,0.7186974886679695,0,0,0,0.38741848450081307,0,0,4.841028901037134
19,27,female,24,165,115,left,change,valid,anti,2,1.073443171044346,1,f,1,change,1.386033859642339,0.7183449359598577,0,0,0,0.38745729376933014,0,0,5.483228943887298
19,27,female,25,165,215,right,change,valid,clock,2,1.1214588948914752,1,f,1,change,0.8164530125613965,0.7180039914652049,0,0,0,0.3874258614705468,0,0,5.358376964359195
19,27,female,26,135,185,right,change,valid,clock,3,1.2174637213538517,1,f,1,change,0.7809001953919505,0.7176735319742524,0,0,0,0.3874611426217598,0,0,5.071243872305786
19,27,female,27,165,165,left,same,catch,clock,1,0.8814402536136186,0,f,0,change,1.4191333537746686,0,0,0,0,0.3874765380332974,0,0,6.641948584456259
19,27,female,28,135,135,right,same,valid,anti,4,1.4956161564587092,1,j,1,same,0.5147343714106682,0.7173524981070997,0,0,0,0.38747333065657585,0,0,5.440761020869104
19,27,female,29,135,85,right,change,valid,anti,4,0.9374481206687051,1,f,1,change,0.8850055744223937,0.7170398876771814,0,0,0,0.3874665951625502,0,0,4.8265123105556995
19,27,female,30,75,75,left,same,valid,clock,3,1.161407102159501,1,j,1,same,0.987645502678788,0.716734749588724,0,0,0,0.38741303195820365,0,0,5.212314918282573
19,27,female,31,105,155,right,change,valid,clock,3,1.0974231287837029,1,j,0,same,0.9102129955244891,0.7164361782081815,0,0,0,0.38756121279948275,0,0,4.873085035274926
19,27,female,32,15,15,left,same,valid,clock,2,0.8815194758371945,1,j,1,same,0.8030971719908848,0.7161433081556412,0,0,0,0.3875586468984693,0,0,4.677236151506804
19,27,female,33,45,95,left,change,valid,clock,1,0.7854197110027599,0,f,1,change,1.3742563695304852,0.715855309467446,0,0,0,0.3874168808142713,0,0,5.092051092240581
19,27,female,34,45,45,right,same,valid,anti,2,1.1934744622194557,1,j,1,same,0.901770215779834,0.7167075639209866,0,0,0,0.3874823113128514,0,0,5.37286693360511
19,27,female,35,135,135,right,same,valid,clock,4,0.9454656021607661,1,j,1,same,0.6366615434162668,0.716413732220437,0,0,0,0.38748102836325415,0,0,4.685466602861197
19,27,female,36,15,325,right,change,valid,anti,3,0.91347618137479,1,f,1,change,0.7849706781562418,0.7161254507024302,0,0,0,0.3874983482000971,0,0,4.580397086161611
19,27,female,37,45,215,right,same,catch,anti,1,0.8094602881774335,0,f,0,change,0.3294528342303238,0,0,0,0,0.3873809581855312,0,0,5.362823031022344
19,27,female,38,15,65,left,change,valid,clock,2,1.279772160733046,1,j,0,same,2.2807391850437853,0.7158419128085282,0,0,0,0.3875012348398741,0,0,7.032742513018093
19,27,female,39,165,165,left,same,catch,clock,1,0.5774709956858715,0,f,0,change,0.4522161695458635,0,0,0,0,0.3875172717289388,0,0,5.768165944578868
19,27,female,40,165,45,right,same,catch,anti,1,0.5523280428715225,0,f,0,change,0.6211070455810841,0,0,0,0,0.387435804339475,0,0,5.893613213367644
19,27,female,41,45,355,left,change,valid,anti,1,1.5444629118119337,0,f,1,change,0.731546032922779,0.7155623416494163,0,0,0,0.3874601804091071,0,0,5.619108207936733
19,27,female,42,45,95,right,change,valid,clock,3,1.4252488604179234,1,f,1,change,1.2824814324922045,0.7163918713474446,0,0,0,0.38741720154939685,0,0,5.658097730074587
19,27,female,43,105,105,right,same,valid,clock,3,1.3053493924599024,1,j,1,same,1.0969894913487224,0.7161080534135249,0,0,0,0.38744029466761276,0,0,5.7055175231853354
19,27,female,44,75,75,right,same,valid,anti,3,0.9534388218398817,1,j,1,same,0.8149859581008059,0.7158288563694395,0,0,0,0.38738416556225275,0,0,5.354385383083354
19,27,female,45,105,105,right,same,valid,anti,1,0.7854219561668287,0,f,0,change,0.6568442869538558,0.7155535245795936,0,0,0,0.3874736513953394,0,0,4.138171576734749
19,27,female,46,45,355,right,change,valid,anti,1,1.7534274035770068,0,f,1,change,0.7880119134824781,0.7163705728949628,0,0,0,0.387462425571357,0,0,5.25910061286595
19,27,female,47,15,15,left,same,valid,anti,2,0.6333480017401598,1,j,1,same,2.2194834069541685,0.7172094634318874,0,0,0,0.38744382278309786,0,0,5.600338634914806
19,27,female,48,45,135,left,change,catch,clock,1,0.609480943687231,0,f,1,change,0.628111316525974,0,0,0,0,0.38742265409200627,0,0,5.5812480034073815
19,27,female,49,105,45,right,same,catch,anti,1,0.4084704273373063,0,f,0,change,0.575302167033442,0,0,0,0,0.3874877638554608,0,0,5.659087847503542
19,27,female,50,105,55,right,change,valid,anti,2,1.2161977694613597,1,f,1,change,1.0111190155148506,0.7169164729514702,0,0,0,0.3874492753238883,0,0,5.38855614129352
19,27,female,51,105,105,right,change,catch,clock,1,2.2014322864870337,0,f,1,change,1.834677010672749,0,0,0,0,0.38749449934766744,0,0,8.965367700169736
19,27,female,52,75,25,left,change,valid,anti,1,0.5442104912035575,0,f,1,change,1.2590865004040097,0.7166301923489614,0,0,0,0.3874146356483834,0,0,5.2015936175757815
19,27,female,53,75,25,right,change,valid,anti,3,1.1854656406485446,1,f,1,change,1.1797202653651766,0.7174717928124414,0,0,0,0.387491933444835,0,0,5.4846857347401965
19,27,female,54,165,165,right,same,valid,anti,4,0.9614293613612972,1,j,1,same,0.419386415858753,0.7171760128730731,0,0,0,0.38750508369412273,0,0,4.824653635305367
19,27,female,55,165,165,left,same,valid,anti,3,1.4650790361974941,1,j,1,same,0.8384492073273577,0.7168875916430336,0,0,0,0.3875124606620375,0,0,5.090600395404181
19,27,female,56,135,85,left,change,valid,anti,3,1.60146121703292,1,f,1,change,0.6927168796573824,0.7166057080763228,0,0,0,0.3874265029444359,0,0,5.148280589080969
19,27,female,57,15,325,left,change,valid,anti,3,0.9934037074726803,1,f,1,change,0.7950165051661315,0.7163295781433914,0,0,0,0.38745023753835994,0,0,4.630860680503247
19,27,female,58,45,45,left,same,valid,clock,1,0.6893943573249999,0,f,0,change,0.9536152276032226,0.7160584506640786,0,0,0,0.387489046806877,0,0,4.628809241865383
19,27,female,1,165,165,left,same,catch,clock,1,0.7362137293712294,0,f,0,change,0.299002633897544,0,0,0,0,0.3874287481085048,0,0,5.624179392470978
19,27,female,2,15,65,right,change,valid,clock,3,1.4803256257910107,1,f,1,change,1.74717365896322,0.7168594391053006,0,0,0,0.3875669860790367,0,0,6.635979013488395
19,27,female,3,45,355,left,change,valid,anti,3,1.529415179618809,1,f,1,change,0.8361010862754483,0.7165818358101147,0,0,0,0.3875278560735751,0,0,5.764239152329537
19,27,female,4,75,125,left,change,valid,clock,2,0.7693892383504135,1,j,0,same,2.365159605516965,0.7163098419152754,0,0,0,0.38751278140080103,0,0,5.902949568480835
19,27,female,5,165,165,left,same,valid,anti,2,1.0414540709971334,1,f,0,change,1.860634637369003,0.7160427263474898,0,0,0,0.3875496662403748,0,0,5.900401307069842
19,27,female,6,75,75,right,same,valid,clock,2,2.257405834605379,1,j,1,same,1.2785726015554246,0.7157797858988184,0,0,0,0.38752529017074266,0,0,6.986956878734418
19,27,female,7,75,75,left,same,valid,anti,3,1.3694770563470229,1,j,1,same,1.1567852712105378,0.7155203417388313,0,0,0,0.38744189835597354,0,0,5.252879262765418
19,27,female,8,15,15,right,same,valid,clock,2,1.0094938373440527,1,f,0,change,0.6921815683563182,0.7152637361352632,0,0,0,0.3875025177912903,0,0,5.049313749514113
19,27,female,9,15,325,right,change,valid,anti,3,0.9055064898075216,1,f,1,change,0.8630032856381149,0.7150093293572148,0,0,0,0.387545175912237,0,0,4.746250896463607
19,27,female,10,15,15,left,same,valid,anti,2,1.2813437756994972,1,f,0,change,2.4629935993580148,0.7147564967370209,0,0,0,0.38748968828076613,0,0,6.6979224533097295
19,27,female,11,105,105,right,change,catch,clock,2,0.9294149230281619,1,j,0,same,1.590902530364474,0,0,0,0,0.38747140622945153,0,0,7.218459291323597
19,27,female,12,165,165,left,same,valid,clock,2,1.128412168534851,1,f,0,change,2.9223994262647466,0.7144871400887449,0,0,0,0.3874723684421042,0,0,7.547956066626284
19,27,female,13,135,135,left,same,valid,clock,2,0.9373063545845071,1,j,1,same,2.643772940768031,0.7142180290279303,0,0,0,0.3874954615621391,0,0,6.620872586287078
19,27,female,14,75,25,left,change,valid,anti,2,0.6573747871898377,1,f,1,change,1.2163764203869505,0.713948435778881,0,0,0,0.38740244761538634,0,0,4.765342810920629
19,27,female,15,165,115,right,change,valid,anti,3,1.2733596509351628,1,j,0,same,1.9084688236489455,0.713677636886579,0,0,0,0.387441577619029,0,0,6.221207693088218
19,27,female,16,45,355,right,change,valid,anti,2,1.2814922772777209,1,f,1,change,0.7584219317905081,0.7134049098166403,0,0,0,0.38745152048795717,0,0,5.379964539233697
19,27,female,17,165,165,left,same,catch,clock,1,1.4334299181609822,0,f,0,change,0.37740248610134586,0,0,0,0,0.38747685877206095,0,0,6.236369607917368
19,27,female,18,45,45,right,same,valid,anti,2,1.3522297046783933,1,j,1,same,0.7141418404971773,0.7131295296071388,0,0,0,0.3874146356483834,0,0,5.20333811018827
19,27,female,19,15,325,left,change,valid,anti,3,0.8892364260573231,1,j,0,same,0.6996348721477261,0.7128507655479169,0,0,0,0.3874085416318849,0,0,4.374839791495106
19,27,female,20,75,25,right,change,valid,anti,2,1.081354167603422,1,f,1,change,2.1029548927253927,0.7125678778636763,0,0,0,0.3874441435218614,0,0,5.861295357130075
19,27,female,21,45,95,right,change,valid,clock,3,0.7774282092686917,1,f,1,change,0.9165607162958622,0.7122801143775945,0,0,0,0.3875082910708443,0,0,5.170735759564195
19,27,female,22,135,85,right,change,valid,anti,3,1.7454365433204657,1,j,0,same,0.6088170165494375,0.7119867071324375,0,0,0,0.3874906504934188,0,0,5.350020142330322
19,27,female,23,105,45,right,same,catch,anti,1,0.769315468667628,0,f,0,change,2.52475069054708,0,0,0,0,0.3875150265630509,0,0,7.43770663529358
19,27,female,24,105,105,left,same,valid,anti,2,1.0141111779666971,1,j,1,same,0.9891924208386627,0.7116868689461415,0,0,0,0.3874422190947371,0,0,5.474505839350968
19,27,female,25,105,215,left,same,catch,clock,1,0.8254532345108601,0,f,0,change,0.7686438438231562,0,0,0,0,0.3874752550837002,0,0,6.610910151093776
19,27,female,26,15,15,left,same,valid,clock,1,0.6082932518056623,0,f,0,change,1.0727449249679921,0.7113797898786414,0,0,0,0.3875031592669984,0,0,4.974270417844309
19,27,female,27,105,155,left,change,valid,clock,2,1.0654305006191862,1,j,0,same,1.5900304444276117,0.7121994141743364,0,0,0,0.3874560108179139,0,0,5.731912315432055
19,27,female,28,165,215,right,change,valid,clock,1,0.6653643644967815,0,f,1,change,2.2014027786153747,0.7119075178278467,0,0,0,0.38746787811396644,0,0,6.1581795182009955
19,27,female,29,135,185,right,change,valid,clock,2,0.8654341570309043,1,f,1,change,0.858813809170897,0.7126838184302258,0,0,0,0.38751342287469015,0,0,4.51479306642068
19,27,female,30,45,135,left,change,catch,clock,1,0.46542671591487306,0,f,1,change,0.607547857280224,0,0,0,0,0.3874601804091071,0,0,5.565570983753787
19,27,female,31,15,65,left,change,valid,clock,2,0.9763920980494731,1,j,0,same,2.4139932106245396,0.7124045724670668,0,0,0,0.3874884053311689,0,0,6.714548215222749
19,27,female,32,165,165,right,same,valid,anti,4,1.3214218817556684,1,j,1,same,0.8282763681709184,0.7121200775882691,0,0,0,0.3874807076244906,0,0,5.221260614815037
19,27,female,33,105,155,right,change,valid,clock,3,1.2094420702724165,1,j,0,same,0.6875709632258804,0.7118295854431349,0,0,0,0.3875172717289388,0,0,4.697417612094796
19,27,female,34,165,45,right,same,catch,anti,1,0.8653786693994334,0,f,0,change,0.9323227314544056,0,0,0,0,0.38742425778036704,0,0,6.283221695215616
19,27,female,35,75,125,right,change,valid,clock,2,1.0484634737440501,1,f,1,change,0.7568506375628203,0.7115323270944309,0,0,0,0.3874787831991853,0,0,4.927918360695912
19,27,female,36,45,45,left,same,valid,clock,3,0.9694648041640903,1,j,1,same,0.7756173239449708,0.7112275096358285,0,0,0,0.3874435020461533,0,0,4.669462430705607
19,27,female,37,75,75,left,same,valid,clock,3,0.881410425003196,1,j,1,same,0.8869736212436692,0.7109143126889912,0,0,0,0.3875377989443223,0,0,4.588114998594392
19,27,female,38,75,75,right,same,valid,anti,2,4.857356376844109,1,j,1,same,1.203206928448708,0.7105918847575252,0,0,0,0.38744670942287485,0,0,8.99239210061387
19,27,female,39,135,85,left,change,valid,anti,1,0.8494822651264258,0,j,0,same,1.0620672445929813,0.7102593394141037,0,0,0,0.3874540863907896,0,0,4.997521338682418
19,27,female,40,165,115,left,change,valid,anti,1,0.5934296230807377,0,f,1,change,0.7228011182196497,0.7111529061179056,0,0,0,0.3875108569736767,0,0,4.484339658709359
19,27,female,41,105,55,right,change,valid,anti,2,1.2494858573900274,1,f,1,change,0.685352420223353,0.711965233270081,0,0,0,0.3874707647537434,0,0,4.949662134855316
19,27,female,42,15,15,right,same,valid,anti,4,1.5614209580307943,1,j,1,same,0.773827286571759,0.7116772477003002,0,0,0,0.3875207998426049,0,0,5.387411107532898
19,27,female,43,135,185,left,change,valid,clock,3,1.5854618559424125,1,f,1,change,0.6600891907528421,0.7113821820057633,0,0,0,0.3874588974576909,0,0,5.068422342334088
19,27,female,44,165,215,left,change,valid,clock,3,1.4094044156609016,1,f,1,change,0.9923504047073948,0.7110792582790357,0,0,0,0.38750925328349695,0,0,5.116863685174394
19,27,female,45,45,45,right,same,valid,clock,4,1.0894864732053975,1,j,1,same,0.5706947692797257,0.7107676702057735,0,0,0,0.38747621729453385,0,0,4.478365918150303
19,27,female,46,165,165,right,same,valid,clock,3,1.033479247626019,1,j,1,same,0.5158187857377925,0.7104465795386748,0,0,0,0.3875089325465524,0,0,4.727874227182838
19,27,female,47,105,105,left,same,valid,clock,3,1.113458733239895,1,j,1,same,0.7546330567711266,0.7101151124006411,0,0,0,0.38743323843846156,0,0,4.888704322134799
19,27,female,48,135,135,left,same,valid,anti,2,0.9453536646851717,1,j,1,same,1.769041237894271,0.7097735608503767,0,0,0,0.38749449934766744,0,0,5.852736791057396
19,27,female,49,15,215,left,same,catch,clock,1,0.617492010422211,0,f,0,change,0.38810133516744827,0,0,0,0,0.3874547278664977,0,0,5.596844197149039
19,27,female,50,135,135,right,same,valid,clock,1,0.6082156332722661,0,f,0,change,0.353912615642912,0.709441938711388,0,0,0,0.3873809581855312,0,0,4.327564971845277
19,27,female,51,15,95,right,change,catch,clock,1,0.561475162710849,0,f,1,change,0.6206708422450902,0,0,0,0,0.38743901171619655,0,0,5.70588605085868
19,27,female,52,45,95,left,change,valid,clock,2,1.0240255025000806,1,j,0,same,0.7364485094039992,0.710375071280145,0,0,0,0.387430031059921,0,0,5.109537714268299
19,27,female,53,105,55,left,change,valid,anti,2,1.393304984392671,1,f,1,change,2.340896115609212,0.7100440301885782,0,0,0,0.38749995189027686,0,0,6.855336691243792
19,27,female,54,105,105,right,same,valid,anti,1,0.5854746854529367,0,f,0,change,0.4623604630432965,0.7097054754698116,0,0,0,0.3874495960644708,0,0,4.317568859187304
19,27,female,55,45,45,left,same,valid,anti,1,0.41751106224546675,0,f,0,change,0.6154950972031656,0.7106243350061162,0,0,0,0.38745569007915037,0,0,3.8266855089405
19,27,female,56,105,105,right,same,valid,clock,4,1.0654924030059192,1,j,1,same,0.3849635577771551,0.7114567214700577,0,0,0,0.38754581738612615,0,0,4.4671025706502405
19,27,female,57,45,215,right,same,catch,anti,1,0.5214522235455661,0,f,0,change,0.29801925196261436,0,0,0,0,0.387489046805058,0,0,5.3779964924124215
19,27,female,58,135,135,right,same,valid,anti,2,0.8323199089627451,1,j,1,same,0.7241559144677012,0.7111642860122865,0,0,0,0.38755543951992877,0,0,4.765377450596134
19,27,female,1,15,325,right,change,valid,anti,1,1.0963085651092115,0,f,1,change,0.34665945220513095,0.7108635752568413,0,0,0,0.3875108569736767,0,0,4.47309363104614
19,27,female,2,15,215,left,same,catch,clock,1,0.5054544661452383,0,f,0,change,0.35239392240509915,0,0,0,0,0.38748455647692026,0,0,5.581232928732788
19,27,female,3,75,125,left,change,valid,clock,2,1.3284030595823424,1,f,1,change,1.9303505150419369,0.7116692028263627,0,0,0,0.38752176205525757,0,0,6.602808315574293
19,27,female,4,165,165,left,same,catch,clock,1,0.769421953600613,0,f,0,change,0.36617570270573196,0,0,0,0,0.38745087901406805,0,0,6.064846437180677
19,27,female,5,135,135,left,same,valid,anti,2,1.8002284935719217,1,j,1,same,2.3392231475154404,0.7113851360354961,0,0,0,0.3874435020443343,0,0,7.421643447392853
19,27,female,6,165,215,left,change,valid,clock,1,0.6574915357305144,0,f,1,change,0.9904436187935062,0.7110934152403803,0,0,0,0.3874861601671,0,0,4.754115065308724
19,27,female,7,15,15,right,same,valid,clock,4,1.1534935396994115,1,j,1,same,0.4404909596869402,0.7118739553059428,0,0,0,0.38748872606811346,0,0,4.6665475660483935
19,27,female,8,45,45,left,same,valid,anti,3,1.0414441281263862,1,j,1,same,0.5482152227268671,0.7115977281476297,0,0,0,0.3875143850891618,0,0,4.63221483527559
19,27,female,9,105,105,right,same,valid,clock,4,0.9614486056234455,1,j,1,same,0.5993635921604437,0.7113144338603289,0,0,0,0.3875313841872412,0,0,4.566693245134957
19,27,female,10,165,165,right,same,valid,clock,4,0.9374840432974452,1,j,1,same,0.387412069745551,0.7110233517746223,0,0,0,0.387527214597867,0,0,4.010072768980535
19,27,female,11,135,85,left,change,valid,anti,2,2.2013950809105154,1,f,1,change,0.679017528958866,0.7107237340612907,0,0,0,0.38744735089858295,0,0,5.55169843467047
19,27,female,12,45,215,right,same,catch,anti,1,0.4734753089669539,0,f,0,change,0.5650972541006922,0,0,0,0,0.38741559786285507,0,0,5.596849328952885
19,27,female,13,135,185,right,change,valid,clock,3,1.5044662731434073,1,f,1,change,0.568421700860199,0.7104148026057082,0,0,0,0.38751983762813325,0,0,5.115434157030904
19,27,female,14,135,135,left,same,valid,clock,2,0.9774290431887493,1,f,0,change,0.7607729394840135,0.7100957457251212,0,0,0,0.3875079703338997,0,0,4.652869704781551
19,27,female,15,45,355,left,change,valid,anti,1,0.4414666439170105,0,f,1,change,0.3165004817474255,0.709767269322963,0,0,0,0.3874900090177107,0,0,3.514807178880801
19,27,female,16,75,125,right,change,valid,clock,3,2.073509243020453,1,f,1,change,0.7023643503853236,0.7106548769618698,0,0,0,0.38747493434493663,0,0,5.651675277407776
19,27,female,17,105,105,left,same,valid,anti,2,2.2894048775233387,1,j,1,same,1.6694383753729198,0.7103462647495156,0,0,0,0.38752689386092243,0,0,7.3551371923658735
19,27,female,18,45,45,left,same,valid,clock,2,1.0253863927646307,1,j,1,same,1.7805778539550374,0.7100274106161018,0,0,0,0.3874560108179139,0,0,5.797538145339786
19,27,female,19,105,105,left,same,valid,clock,1,1.0094421985686495,0,f,0,change,1.0190826130619826,0.7097018215733593,0,0,0,0.38745023753835994,0,0,5.393037489111521
19,27,female,20,105,155,left,change,valid,clock,1,0.9453847762470104,0,f,1,change,1.37203558136207,0.7105866792737823,0,0,0,0.3874505582771235,0,0,5.826507499490617
19,27,female,21,45,45,right,same,valid,clock,4,1.0334048364675255,1,j,1,same,0.6024590321685537,0.7113886234110782,0,0,0,0.38741720154939685,0,0,4.677357390375619
19,27,female,22,105,105,right,same,valid,anti,3,1.0651213094315608,1,j,1,same,1.9711085851231473,0.7111071984428345,0,0,0,0.38757308009553526,0,0,6.076345847664925
19,27,female,23,15,325,left,change,valid,anti,2,1.1133259478119726,1,f,1,change,2.2465745208501176,0.7108176038903213,0,0,0,0.3874765380332974,0,0,6.855646203170181
19,27,female,24,135,85,right,change,valid,anti,1,2.209425712646407,0,f,1,change,0.7968450310654589,0.710519105786957,0,0,0,0.38753940263268305,0,0,6.390223977583446
19,27,female,25,135,135,right,same,valid,clock,2,0.7613855485833483,1,j,1,same,1.113121958604097,0.7113205525498982,0,0,0,0.38740661720476055,0,0,4.9763112721357174
19,27,female,26,75,25,right,change,valid,anti,3,0.9214436277743516,1,j,0,same,0.7951438380514446,0.7110396102296015,0,0,0,0.38750989475920505,0,0,5.118850655524511
19,27,female,27,105,55,left,change,valid,anti,1,0.9294611092645937,0,f,1,change,1.4846013807127747,0.7107503769457816,0,0,0,0.3874428605704452,0,0,5.440927804500461
19,27,female,28,45,45,right,same,valid,anti,3,1.3054722350170778,1,j,1,same,0.6900371157717018,0.7115260440611146,0,0,0,0.38750155557863764,0,0,5.338789510078641
19,27,female,29,105,45,right,same,catch,anti,1,0.47343425453436794,0,f,0,change,0.6154665515441593,0,0,0,0,0.38748391500121215,0,0,5.627917270187027
19,27,female,30,15,65,right,change,valid,clock,2,0.9921813759137876,1,f,1,change,0.6718259471708734,0.7112532305335838,0,0,0,0.38743804950536287,0,0,4.745330379124425
19,27,female,31,75,75,right,same,valid,clock,1,0.4654610348534334,0,f,0,change,0.38558546827152895,0.7109727047289369,0,0,0,0.3874351628637669,0,0,3.729569646919117
19,27,female,32,15,15,left,same,valid,anti,2,0.825523796816924,1,f,0,change,1.12309786478545,0.711724136834262,0,0,0,0.3875384404200304,0,0,4.719940137507365
19,27,female,33,45,135,left,change,catch,clock,1,0.43347578365865047,0,f,1,change,0.3791626948641351,0,0,0,0,0.3874752550818812,0,0,5.4564768497912155
19,27,female,34,135,135,right,same,valid,anti,4,1.096441350537134,1,j,1,same,0.6313193354817486,0.7114589608936787,0,0,0,0.3874848772156838,0,0,5.0017765663869795
19,27,female,35,15,95,right,change,catch,clock,1,0.47347691265531466,0,f,1,change,0.34369679762494343,0,0,0,0,0.3875166302532307,0,0,5.409803413418558
19,27,female,36,45,95,right,change,valid,clock,3,1.1204177801628248,1,f,1,change,0.8069328747205873,0.7111866200316083,0,0,0,0.38750989476102404,0,0,5.089231486697827
19,27,female,37,45,355,right,change,valid,anti,4,1.0974635417387617,1,f,1,change,0.7886344654525601,0.7109064468650165,0,0,0,0.3875031592651794,0,0,4.75511769150944
19,27,female,38,165,165,left,same,catch,clock,1,1.1854399816293153,0,f,0,change,0.3283953618756641,0,0,0,0,0.3875025177912903,0,0,6.2053173828317085
19,27,female,39,165,165,left,same,valid,anti,1,0.7202374613989377,0,f,0,change,1.3473131157370517,0.7106177477560557,0,0,0,0.3875060459067754,0,0,5.193731052417206
19,27,female,40,75,75,left,same,valid,clock,1,0.37745316266591544,0,f,0,change,0.9924886426761077,0.7113926178265949,0,0,0,0.38751053623491316,0,0,4.381444102466048
19,27,female,41,165,45,right,same,catch,anti,2,1.5294318579835817,1,j,1,same,2.086957776798954,0,0,0,0,0.38741559786285507,0,0,8.37364376043297
19,27,female,42,135,185,left,change,valid,clock,1,0.3925576654382894,0,f,1,change,0.22200729229371063,0.7120998304584416,0,0,0,0.38750989475920505,0,0,3.890028969033665
19,27,female,43,105,105,right,change,catch,clock,1,0.3855007935053436,0,f,1,change,0.3049484702733025,0,0,0,0,0.38748263205161493,0,0,5.207070214624764
19,27,female,44,105,155,right,change,valid,clock,2,0.6874542146870226,1,f,1,change,1.0416247034772823,0.712753274245108,0,0,0,0.3874511997510126,0,0,4.824406025763892
19,27,female,45,45,95,left,change,valid,clock,1,0.977279579397873,0,j,0,same,1.6331783314708446,0.7125180237295529,0,0,0,0.38742906884726835,0,0,5.90673234948008
19,27,female,46,75,25,left,change,valid,anti,1,0.5214868632247089,0,f,1,change,0.7188098576807533,0.7131416922044189,0,0,0,0.38747750024595007,0,0,4.456394740927863
19,27,female,47,165,115,right,change,valid,anti,2,0.9133154917617503,1,f,1,change,2.6748790497949813,0.7137307614180359,0,0,0,0.3874569730305666,0,0,6.761307930048133
19,27,female,48,105,215,left,same,catch,clock,1,0.5855324182466575,0,f,0,change,0.2652574946787354,0,0,0,0,0.3874835942642676,0,0,5.378730019641807
19,27,female,49,165,165,right,same,valid,anti,4,1.0643861785119952,1,j,1,same,0.5734297000599327,0.7135136867627064,0,0,0,0.38747397213228396,0,0,5.021130844321306
19,27,female,50,165,115,left,change,valid,anti,3,1.6892804954241,1,j,0,same,1.4095115420695947,0.7132943568191529,0,0,0,0.38750925328349695,0,0,6.285295906231113
19,27,female,51,75,75,left,same,valid,anti,3,0.7214536989413318,1,j,1,same,0.885771816903798,0.7130722751054538,0,0,0,0.38749642377479177,0,0,4.9653141369653895
19,27,female,52,75,75,right,same,valid,anti,3,0.9134758606360265,1,j,1,same,0.5273406478645484,0.7128469385548271,0,0,0,0.3874630670488841,0,0,4.355096458670232
19,27,female,53,165,165,left,same,valid,clock,2,0.8893810787812981,1,f,0,change,0.9845112534057989,0.7126178356755832,0,0,0,0.38748166983896226,0,0,4.649346400616196
19,27,female,54,165,215,right,change,valid,clock,1,0.49746392662564176,0,f,1,change,0.5223528551432537,0.712384444683028,0,0,0,0.38745504860344226,0,0,3.9917044388821523
19,27,female,55,15,15,left,same,valid,clock,2,0.6415264935803862,1,j,1,same,1.0330703069976153,0.7130039634456709,0,0,0,0.3875230450066738,0,0,4.692982771250172
19,27,female,56,105,55,right,change,valid,anti,2,3.2254218663601932,1,j,0,same,2.2492433796523983,0.7127797166861574,0,0,0,0.38749225418359856,0,0,8.812363285534957
19,27,female,57,15,65,left,change,valid,clock,1,1.2094590693741338,0,f,1,change,1.7998368727821799,0.7125515672876573,0,0,0,0.38751278139898204,0,0,6.46020895422771
19,27,female,58,15,15,right,same,valid,anti,4,0.8494533987304749,1,j,1,same,0.7270643643678341,0.713156407161841,0,0,0,0.3873896181030432,0,0,4.817078130432492
