subject,age,gender,ntrial,memory_ori,test_ori,cue,type,trial_type,which_change,pas,pas_rt,vis,test_key,test_acc,test,test_rt,contrast,fix_dur,cue_dur,jitter_dur,target_dur,mask_dur,retention_dur,trial_dur
1,24,female,1,165,165,right,same,valid,anti,1,3.0081046701689047,0,j,1,same,1.0311315683466091,0.5,0.9601816262074863,0.5018817562977347,0.40037917373228993,0.03484119734457636,0.34846168748117634,0.9022612507651502,8.714541065714002
1,24,female,2,15,325,left,change,valid,anti,2,2.385438663788591,1,f,1,change,1.3396507573215786,0.6571452603159259,1.2757778481973219,0.5019125469225401,0.29574909744951583,0.03478250271291472,0.34859222690647584,0.9022365541168256,8.605244605867483
1,24,female,3,165,165,right,same,valid,clock,2,2.6894752507505473,1,j,1,same,0.709136027855493,0.6071840821787083,0.5588934875249834,0.5019375643059902,0.40029514098205254,0.03480463347659679,0.3486085844269837,0.902182991258087,7.669708310133501
1,24,female,4,165,215,right,change,valid,clock,2,1.8411768177375052,1,f,1,change,1.0002607581172924,0.5725780085130471,0.6703950052469736,0.50194365828429,0.4978956531340373,0.03485819633715437,0.34849889282122604,0.9022381577960914,7.32593930654366
1,24,female,6,75,125,right,change,valid,clock,2,2.184013442674768,1,f,1,change,1.0893463791508111,0.5448625330919917,0.9555668810899078,0.5019404509293963,0.40021976809475746,0.03488449666292581,0.3485328908027441,0.9022083293784817,7.951329000408805
1,24,female,7,15,65,left,change,valid,clock,2,2.185410567342842,1,j,0,same,1.3874002832744736,0.5214749769659333,0.5640631053884135,0.5019263385584054,0.34447718799492577,0.03488642107731721,0.34854828611605626,0.9022756838730857,7.7942464507395925
1,24,female,8,75,75,left,same,valid,clock,1,3.489423099128544,0,f,0,change,1.2412949126173771,0.501479045132303,0.5983795791435114,0.5018724549627223,0.4003066874684009,0.03479950170367374,0.34859126469928015,0.902243610302321,9.042101049702978
1,24,female,9,45,95,left,change,valid,clock,3,2.9054140826065122,1,f,1,change,0.9511926877385122,0.5443030923458257,1.0789821260405006,0.5019131883946102,0.49791201065454516,0.03487391238559212,0.34850626974184706,0.9022157062991027,8.745898752722496
1,24,female,10,45,355,right,change,valid,anti,2,2.6414335345853033,1,j,0,same,3.0086415817149827,0.5304450981196174,0.8626949752269866,0.5019657890479721,0.4490668515827565,0.034848253530071815,0.34853224933249294,0.9022788912297983,10.274704666577236
1,24,female,11,75,25,left,change,valid,anti,2,2.6813118859518,1,j,0,same,2.74560303441649,0.5183976517898878,1.037184492301094,0.5019664305200422,0.4490613990747079,0.034872308706326294,0.34853706036847143,0.9022208380702068,10.22773132099428
1,24,female,12,105,55,right,change,valid,anti,1,3.177289860390374,0,f,1,change,2.605665731827685,0.5076341384359251,0.6228520330787433,0.501897793081298,0.4979886664841615,0.03478025756521674,0.34857105834998947,0.9022586848805076,10.212286293808575
1,24,female,13,45,45,left,same,valid,clock,2,1.8174414144195907,1,j,1,same,1.2360765429311869,0.5339184850714094,0.8481573093104089,0.5018868880670198,0.4003114985025604,0.03481874584576872,0.34857683159316366,0.90221185747032,7.607169982218693
1,24,female,14,135,135,right,same,valid,anti,2,1.8653375165813486,1,j,1,same,2.5398324861635047,0.5249319696325655,1.1639568777281966,0.501909660302772,0.2958045847226458,0.03486813914241793,0.3484918366339116,0.9022234039548493,9.182631071847936
1,24,female,15,165,165,left,same,valid,clock,2,2.3614482755965582,1,j,1,same,1.1901879254546657,0.5166025599809432,0.7327479479336034,0.501926659293531,0.4002730102183705,0.034854026773246005,0.34856464363656414,0.9022275735187577,7.997112416576783
1,24,female,16,75,75,right,same,valid,anti,2,1.409420712854626,1,j,1,same,0.97613854755582,0.5092742692008116,0.8482079855493794,0.5019770147973759,0.295728249629974,0.03481072745307756,0.3485495690601965,0.902228856462898,6.842397217040343
1,24,female,17,75,75,right,same,valid,clock,2,1.401383397182144,1,j,1,same,0.9647501853851281,0.5023148284698953,0.7061288100194361,0.5019301873853692,0.4490572295089805,0.03488385519267467,0.3484982513491559,0.9022439310392656,6.827015695520458
1,24,female,19,15,15,right,same,valid,clock,3,1.4324492147097772,1,j,1,same,0.4548433013715112,0.4956063707658129,0.8246063290134771,0.501972524498342,0.29567276235502504,0.03487936489182175,0.3484533483515406,0.9022599678246479,6.32905781966474
1,24,female,20,45,45,right,same,valid,anti,3,1.753377667559107,1,j,1,same,0.8391221849033172,0.48953944847236597,0.7534411732249282,0.5018923405750684,0.2957455693558586,0.03488642107731721,0.3485306456550461,0.9022740801938198,6.9518559691478
1,24,female,21,105,105,left,same,valid,anti,1,1.569384110498504,0,j,1,same,2.126715935944958,0.48362437929459806,0.5700550895617198,0.5018442302225594,0.497886993269276,0.03482323614662164,0.3485944720559928,0.9022009524560417,8.074953685767468
1,24,female,23,135,135,left,same,valid,anti,2,2.224197775889479,1,f,0,change,1.883403916566749,0.49836797580257264,0.912256978566802,0.5019067736811849,0.4490841713104601,0.0348075200963649,0.3485585496582644,0.9022705521019816,8.793861567910426
1,24,female,24,15,15,left,same,valid,anti,1,1.1853784937738965,0,f,0,change,1.6760450851743371,0.49323990767374465,0.6167561305428535,0.5018987552884937,0.4003060459963308,0.03484440470128902,0.348554380094356,0.9021778594869829,7.185799940471043
1,24,female,25,15,15,right,same,valid,anti,2,2.4974097385602363,1,j,1,same,0.7708821386149793,0.5062753046399487,1.2647320317446429,0.5019154335459461,0.49784369395092654,0.03483478263115103,0.348573624234632,0.9021765765446617,8.340163613691402
1,24,female,26,75,125,left,change,valid,clock,1,1.217401707341196,0,f,1,change,1.378778587173656,0.5017341085122559,0.8147700068511767,0.5018419850712235,0.49786935280644684,0.03483221674650849,0.3485851707209804,0.9022003109857906,7.21689783156944
1,24,female,27,105,105,right,same,valid,anti,2,1.4254632706306438,1,j,1,same,0.7754888653398666,0.5136548440420988,1.2680798708861403,0.5018679646618693,0.4491451110898197,0.034768711077049375,0.3485248724118719,0.9022086501136073,7.232576995809723
1,24,female,28,135,185,right,change,valid,clock,4,2.457408224689061,1,f,1,change,0.923418901338664,0.5092721875810439,0.6030982426254923,0.5019212067873013,0.29571253358153626,0.03485819633715437,0.34856945467254263,0.9021631056457409,7.591392031385112
1,24,female,29,135,135,left,same,valid,clock,3,1.3613908639090369,1,j,1,same,1.7420739796125417,0.5052259289104554,0.8912077366585436,0.5019382057780604,0.29568783693139267,0.034836386308597866,0.3485537386241049,0.9022484213401185,7.606948995326093
1,24,female,31,75,75,left,same,valid,anti,2,1.7283278893792158,1,j,1,same,1.3719238239900733,0.5014488315743392,1.0254442830791959,0.5019090188307018,0.34451567627729673,0.03483382042395533,0.34850915636343416,0.9022304601403448,7.795415211596264
1,24,female,32,105,155,left,change,valid,clock,2,2.281382383656819,1,j,0,same,0.8482891316798487,0.49761849199038005,0.9956161845802853,0.5018974723461724,0.3445538438245421,0.03484504617335915,0.34855309715203475,0.9022500250175653,7.778422313966075
1,24,female,33,105,105,left,same,valid,clock,3,2.041385488379092,1,j,1,same,1.3787125156213733,0.49407095790678646,1.1048683829012589,0.5019417338717176,0.34450733714948,0.03477480505716812,0.3485915854344057,0.9022311016124149,8.184100041311467
1,24,female,35,105,105,right,same,valid,clock,3,0.8472919644154899,1,j,1,same,1.773039086134304,0.4904693384017642,0.7654418198289932,0.5018477583143977,0.34460227491399564,0.03478795522096334,0.34860666001259233,0.9022311016105959,7.046652930624987
1,24,female,36,45,95,right,change,valid,clock,3,3.2014136746311124,1,j,0,same,2.021241041851681,0.48704510738640217,0.7053102925365238,0.5019086980955763,0.2957712282131979,0.03483510336809559,0.3485752279157168,0.9022176307116752,9.541059941651838
1,24,female,37,135,185,left,change,valid,clock,1,1.4414371909715555,0,j,0,same,1.2524670989314473,0.4838494100339653,1.0208776483141264,0.5019593743345467,0.49786742839205544,0.034853385301175877,0.34856560584375984,0.9022240454251005,7.528897323525598
1,24,female,38,165,115,right,change,valid,anti,1,1.2414424510370736,0,f,1,change,1.3819064016279299,0.4922991803992512,1.2126945903419255,0.5019160750161973,0.4979784029419534,0.03482355688174721,0.34850466606258124,0.9021942170074908,7.638167803781471
1,24,female,39,165,115,left,change,valid,anti,1,1.1771455293292092,0,j,0,same,1.692268217146193,0.5005011325235316,1.1327409558944055,0.5019176786936441,0.2957558328998857,0.03485563045069284,0.34853192859736737,0.9022307808772894,7.607150738078417
1,24,female,40,45,45,left,same,valid,anti,1,2.9933123401133344,0,f,0,change,1.3210817645085626,0.5085324474267089,1.129520448825133,0.5019619402210083,0.44903958904797037,0.03484087660945079,0.3485563045105664,0.9022291771980235,9.198094060231597
1,24,female,41,15,325,right,change,valid,anti,3,2.5533152523948957,1,j,0,same,1.4318385339556698,0.5164894254506973,0.8867174369879649,0.501996900411541,0.4490553050964081,0.03478955889841018,0.3485450787593436,0.9022128196775157,8.63648522434778
1,24,female,43,15,15,left,same,valid,clock,2,2.1763148238896974,1,j,1,same,2.298327170930861,0.5137782462743208,0.7185201126940228,0.501934036214152,0.2956855917836947,0.034854347508371575,0.34860056603429257,0.9021765765446617,8.809439058935823
1,24,female,44,165,165,left,same,valid,anti,3,1.8814621826968505,1,j,1,same,1.0832844745964394,0.5109904513661404,0.749281872787833,0.5019433375491644,0.3445262605564494,0.03485563045069284,0.3485306456550461,0.9022198758630111,7.372776018721197
1,24,female,46,165,215,left,change,valid,clock,3,2.656181282378384,1,j,0,same,1.074732057402798,0.5082953893987932,0.6690613862465398,0.5019224897296226,0.400231956051357,0.034894118733063806,0.3485162125471106,0.9022394407402317,8.12291714242565
1,24,female,47,135,85,right,change,valid,anti,3,2.369458328736073,1,j,0,same,1.1215909003440174,0.50577400083444,1.022079124211814,0.501895547931781,0.2956910442899243,0.03485146088678448,0.3485755486508424,0.9022115367351944,8.121854224344133
1,24,female,50,45,355,left,change,valid,anti,1,0.6635954086050333,0,f,1,change,4.578145968096578,0.5033750509415191,1.2503980329929618,0.5019173579603375,0.2957638512925769,0.03487262944145186,0.34848349750609486,0.9023308504129091,10.104105994165366
1,24,female,51,135,85,left,change,valid,anti,2,1.3374251723635098,1,f,1,change,1.1509311598583736,0.5098505213093637,0.6624154219971388,0.5018856051265175,0.4491316401908989,0.03484344249591231,0.3485479653809307,0.9022035183425032,6.904924960677818
1,24,female,52,15,65,right,change,valid,clock,1,1.4894503616633301,0,f,1,change,1.2329971595663665,0.5074577851209169,1.149777152841125,0.5019545632985682,0.44900366665024194,0.03487262944145186,0.348600245299167,0.9021906889156526,7.638429844841085
1,24,female,53,105,155,right,change,valid,clock,2,1.5693055302526773,1,j,0,same,1.7026449789464095,0.513978213243881,1.0839936212087196,0.501897793081298,0.44910790574977,0.034842480286897626,0.3485117222480767,0.9022282149890088,8.121830169169698
1,24,female,54,75,25,right,change,valid,anti,1,2.18552763587104,0,f,1,change,1.0076203592743695,0.5116581290343476,0.9634585827589035,0.5019346776862221,0.4491136789929442,0.0348341411590809,0.3485524556799646,0.9022269320485066,7.919173002266689
1,24,female,56,135,135,right,same,valid,clock,2,1.7596085998229682,1,j,1,same,0.8627045972971246,0.5176144114125583,1.2109876349968545,0.5018702098113863,0.3445567304461292,0.03483959366712952,0.3485290419757803,0.9021573324025667,7.499043245434223
1,24,female,57,105,55,left,change,valid,anti,1,1.1294085120680393,0,j,0,same,1.303389663073176,0.5154963017770966,0.6662010653562902,0.5018698890762607,0.29566891352624225,0.03489059064122557,0.34852262726235494,0.9021836327283381,6.702209740615217
1,24,female,58,45,45,right,same,valid,clock,1,1.713383530606734,0,f,0,change,1.694420353631358,0.5215586897700031,1.2142844771624368,0.5018618706835696,0.34452882644109195,0.03487423312071769,0.34849793061403034,0.9022387992681615,8.277739467681386
1,24,female,1,165,215,right,change,valid,clock,1,1.9763691565167392,0,f,1,change,2.968990311217567,0.527182212812396,1.0061129015284678,0.5019237726719439,0.3445750123792095,0.03484761205800169,0.3485223065254104,0.9021666337375791,9.620610732074056
1,24,female,2,45,45,right,same,valid,anti,2,1.4894465128327283,1,j,1,same,0.6233148546798475,0.5330139313506986,0.8456478732659889,0.5019186409008398,0.4003419683940592,0.03481778363857302,0.34850530753465137,0.9022083293784817,6.6710618147481
1,24,female,3,135,85,left,change,valid,anti,1,2.041347000094902,0,f,1,change,1.1867983906759036,0.5309359052372362,0.6456111169554788,0.5019106225081487,0.2957943211822567,0.0348569133948331,0.3485595118654601,0.9022185929188709,7.482061252820131
1,24,female,4,75,75,right,same,valid,clock,2,2.2333727410587016,1,j,1,same,1.8091244172228471,0.5363166759500131,0.5821689558651997,0.50191928237291,0.4491470355042111,0.03487006355680933,0.3484934403149964,0.9022371955888957,8.387068321833794
1,24,female,5,15,15,right,same,valid,clock,3,2.153410126009476,1,j,1,same,0.516637843218632,0.534437742483981,0.6584559398961574,0.5018763037896861,0.3445644281018758,0.034836386308597866,0.3485114015129511,0.9022644581236818,6.9830555334610835
1,24,female,7,105,55,left,change,valid,anti,1,1.4242091940795945,0,f,1,change,1.1348716030897776,0.5324909201386634,1.2614586032850639,0.5018840014472516,0.2957770014545531,0.034790521105605876,0.3485335322748142,0.9022365541186446,7.436685170978308
1,24,female,8,15,325,right,change,valid,anti,3,2.505374567968829,1,f,1,change,1.7298045564984932,0.5374815434387823,1.2399240882768936,0.5019417338717176,0.29574396568023076,0.03481136892514769,0.34857202055718517,0.9021611812313495,9.088872652535429
1,24,female,9,75,75,left,same,valid,clock,2,1.6733759227554401,1,j,1,same,1.1944530686705548,0.5356875350573643,0.8556362241452007,0.5018923405750684,0.3445076578846056,0.034860441486671334,0.34850370385538554,0.9022817778513854,7.3728991812258755
1,24,female,11,135,135,left,same,valid,clock,3,2.1120769175504392,1,j,1,same,1.2091090860576514,0.5339618818145494,1.197261109642568,0.5019385265150049,0.40033876103734656,0.03480655789098819,0.34859671720732877,0.9022246868971706,8.232228035378284
1,24,female,12,135,135,left,same,valid,anti,3,1.7534690772317845,1,j,1,same,1.230269943987878,0.5321617997242449,0.8339349265788769,0.5019042077947233,0.34448616859299364,0.03483542410322116,0.3485210235830891,0.9022320638177916,7.466589925306835
1,24,female,13,135,185,left,change,valid,clock,2,2.873399528902155,1,f,1,change,1.9930916739576787,0.5303783275537326,1.1748311005849246,0.5019029248524021,0.40029129215508874,0.0348549889804417,0.34854443728909246,0.9021688788870961,9.759681086088676
1,24,female,14,45,95,left,change,valid,clock,1,1.1934097154698975,0,j,0,same,1.3079800322793744,0.5286350327082057,0.5244506439084944,0.501934036214152,0.4979277267029829,0.034779295356202056,0.348556625243873,0.9022173099765496,6.826639793291179
1,24,female,17,165,165,right,same,valid,clock,3,1.711725327086242,1,f,0,change,1.9985018435891106,0.5333350207700751,1.2927030705959623,0.5019086980955763,0.29579945295336074,0.034837027780667995,0.34853000418297597,0.902265099593933,8.622175280772353
1,24,female,18,165,165,right,same,valid,anti,4,3.4174076730232628,1,j,1,same,1.383245793871538,0.5316585888002491,0.8474876131876954,0.5019366021006135,0.40024061591611826,0.03486140369386703,0.34856175701497705,0.9021204477976426,9.354080656044971
1,24,female,19,135,135,right,same,valid,anti,3,1.5054592421911366,1,j,1,same,0.5792082447042048,0.5299874788847986,1.2435872105997987,0.5019648268407764,0.3444720562238217,0.03485306456423132,0.3485290419739613,0.9022124989423901,6.983281972858094
1,24,female,20,105,105,right,same,valid,anti,3,1.3613571866590064,1,j,1,same,0.6852681606960687,0.5283714165126083,0.8275837184301054,0.5019330740069563,0.44908160542217956,0.03489187358354684,0.34848445971329056,0.9023170587752247,6.639579682292606
1,24,female,21,15,15,left,same,valid,clock,3,1.3181803894512996,1,j,1,same,0.9965309227682155,0.5268400190020835,0.6884751968682394,0.5019196031080355,0.29575839878452825,0.034870705028879456,0.3485518142097135,0.9021987073065247,6.608756982415798
1,24,female,22,105,155,right,change,valid,clock,3,1.4173990131603205,1,f,1,change,0.9689752366375615,0.525371724475483,1.188796574029766,0.5019353191582923,0.3444762257877301,0.03482676423845987,0.3485938305839227,0.9021717655105022,7.232654613846535
1,24,female,23,75,75,right,same,valid,anti,2,0.6173953567722492,1,j,1,same,1.3878316727768834,0.5239475031674089,0.5058925561097567,0.5019837502477458,0.4978918043052545,0.03487968562876631,0.3484373115679773,0.9022333467619319,6.3276206030350295
1,24,female,24,75,25,left,change,valid,anti,1,1.1213535559327283,0,f,1,change,2.4950205784007267,0.5224528025606114,0.9312788501756586,0.5019202445801056,0.29570900548787904,0.03484151807970193,0.3485572667159431,0.9022253283692407,8.152911382012462
1,24,female,25,75,125,right,change,valid,clock,2,1.6972675243559934,1,f,1,change,1.4127351954812184,0.5263170146115902,1.1096207236296323,0.5018910576327471,0.4491326023980946,0.03475973047898151,0.3486137161962688,0.9021640678529366,7.981371350349946
1,24,female,26,45,355,right,change,valid,anti,4,1.0893633781415701,1,f,1,change,1.6956721850310714,0.5249469895578843,1.1521098635203089,0.5018897746904258,0.4003336292644235,0.03484953647239308,0.34851685401918076,0.9022208380702068,7.653689486796793
1,24,female,27,15,65,right,change,valid,clock,3,2.0414486733097874,1,f,1,change,1.4657232974714134,0.5235198007001886,1.1546821637584799,0.5019080566253251,0.40030764967377763,0.03483510336809559,0.34851974064076785,0.9021698410942918,8.371477359909477
1,24,female,28,165,115,left,change,valid,anti,4,0.6894213671548641,1,f,1,change,1.4311293873433897,0.5221116492494781,0.6910635338917928,0.5019048492667935,0.44907294556105626,0.03487968562876631,0.34856753025815124,0.9022179514486197,6.577310451621088
1,24,female,29,165,215,left,change,valid,clock,3,1.2014996317957412,1,f,1,change,1.0988138552693272,0.5207059455976311,0.8097678130197892,0.5019337154790264,0.2957561536350113,0.03481682143319631,0.3485505312673922,0.9022038390776288,6.717929317552262
1,24,female,30,15,15,left,same,valid,anti,4,1.0014737804976903,1,j,1,same,1.1565725799209758,0.5193021243605467,1.2988695349849877,0.5019426960789133,0.449117527819908,0.034842480288716615,0.3485466824386094,0.9021906889156526,7.217013296418372
1,24,female,31,15,325,left,change,valid,anti,3,1.3294231376166863,1,f,1,change,1.177458567362919,0.5179637443414623,1.3358734530920628,0.5019914479034924,0.34447269769589184,0.03480014317574387,0.34857105835180846,0.9021932548002951,7.497833751143844
1,24,female,32,45,355,left,change,valid,anti,3,1.5135036140491138,1,f,1,change,1.0172690510589746,0.51668573349434,1.1438512402201013,0.5019346776862221,0.44917686392363976,0.03475331576555618,0.34855790818619425,0.9021971036290779,7.435418585735533
1,24,female,33,15,15,right,same,valid,anti,3,1.1934860505625693,1,j,1,same,0.6864228091835685,0.5154533639410661,1.1301821265551553,0.5019090188307018,0.40032753528794274,0.03480335053427552,0.3485338530099398,0.9023407932181726,6.717845605535331
1,24,female,34,135,135,right,same,valid,clock,4,1.6574815448693698,1,j,1,same,0.5985126844552724,0.5142533988372716,0.7824927706187736,0.5018573803845356,0.3446035578581359,0.03478827595608891,0.34859607573343965,0.9021313528119208,6.686685170978308
1,24,female,35,45,45,left,same,valid,anti,3,0.9294160172830743,1,j,1,same,1.4480651940193638,0.5129916920309157,0.5598082257165515,0.5019773355325015,0.44913869637639436,0.03477672947155952,0.34853706036665244,0.9022583641453821,6.702338997098195
1,24,female,36,135,85,right,change,valid,anti,3,1.241475486813215,1,f,1,change,0.87435435905536,0.511737478643254,0.9059618991668685,0.5018910576327471,0.4002957824523037,0.03486396957850957,0.34851685401918076,0.9023231527553435,6.733135717382538
1,24,female,37,165,115,right,change,valid,anti,2,1.4413974197450443,1,j,0,same,1.415361058581766,0.5104778680582844,0.8334557474554458,0.5019497522625898,0.44903862684077467,0.03488417592598125,0.34852840050371015,0.9022015939281118,7.451218667330977
1,24,female,39,75,125,left,change,valid,clock,2,2.0242928419484087,1,f,1,change,1.0094799848102411,0.5092192451109003,1.2083681866115512,0.5019269800286565,0.4978972568114841,0.03481650069625175,0.3485582289231388,0.90224361030414,8.060632516440819
1,24,female,40,105,105,left,same,valid,clock,3,1.6334584416345024,1,j,1,same,1.0094363647549471,0.5080187366643725,0.8057380898007978,0.5019292251781735,0.4978821822351165,0.03487391238559212,0.34853321153968864,0.9022506664878165,7.263616192278278
1,24,female,41,105,55,right,change,valid,anti,3,1.3614162020276126,1,f,1,change,0.9715642151331849,0.5068697848942645,1.21588847635212,0.5019282629727968,0.4002868018542358,0.034824839825887466,0.3485591911303345,0.9022137818847114,7.26383300960515
1,24,female,42,165,165,left,same,valid,anti,3,1.2654443857136357,1,j,1,same,1.0562557572047808,0.5057605396435949,0.7324663419967692,0.5019526388859958,0.4490896238148707,0.03485755486508424,0.3485114015129511,0.9022792119649239,6.811206954062072
1,24,female,43,45,95,right,change,valid,clock,4,1.3214679302800505,1,f,1,change,1.0146909775758104,0.5046802719353284,1.2935462847253802,0.5019391679852561,0.3444762257877301,0.03489251505561697,0.3485623984870472,0.9021868400868698,7.279284451504282
1,24,female,44,135,185,right,change,valid,clock,4,1.3454692234863614,1,f,1,change,1.0366863897743315,0.5035456722101536,1.1853066489784396,0.5019394887222006,0.49784080733115843,0.03484664985080599,0.3485659265788854,0.902192613328225,7.373182070105031
1,24,female,45,15,65,left,change,valid,clock,2,1.5214870461277314,1,j,0,same,0.9483330083221517,0.5024200709622865,1.2807912677781133,0.5018407021289022,0.29574428641535633,0.03483446189602546,0.3485104393057554,0.9022609300318436,7.357315275487053
1,24,female,47,45,45,right,same,valid,clock,3,1.1442159166999772,1,j,1,same,0.578923431408839,0.50129291339264,1.3381221310191904,0.5019189616377844,0.2957600024619751,0.034786030806571944,0.348619489439443,0.9022153855621582,6.672150070946373
1,24,female,48,105,155,left,change,valid,clock,3,1.1054787429220596,1,f,1,change,0.8917536288045085,0.5001539910211069,0.8435448093423474,0.5019013211749552,0.29580971649556886,0.03478154050571902,0.34853802257566713,0.9021961414218822,6.452740878918121
1,24,female,51,105,105,left,same,valid,anti,3,1.0960744517342391,1,j,1,same,1.3522345014098391,0.49902354822045397,1.3782827297945914,0.5019269800304755,0.4978590892642387,0.03484600838055485,0.34867401450719626,0.9021137123490917,7.639428936518016
1,24,female,54,105,105,right,same,valid,clock,2,1.6800148308193457,1,j,1,same,0.7510674083787308,0.49794593999205017,1.1569144841669186,0.5019888820170308,0.4003204791024473,0.03480912377744971,0.3486069807477179,0.9022141026198369,7.311800956562365
1,24,female,55,45,45,left,same,valid,clock,2,1.369383597320848,1,j,1,same,0.9429196313340071,0.4969117017273413,0.6553730284376797,0.5019516766788001,0.34454774984806136,0.03479501140463981,0.34865124227326305,0.9021708033014875,6.624263911589878
1,24,female,56,75,75,left,same,valid,anti,2,1.3773843491235311,1,j,1,same,1.7695485196127265,0.4959112889366522,0.7432392123755562,0.5018965101389767,0.4004080399463419,0.03478186124084459,0.3485793974778062,0.9021781802221085,7.607285447065806
1,24,female,57,165,165,left,same,valid,clock,1,1.0734115885643405,0,j,1,same,1.2019547557410988,0.49493599301857205,1.001076068241673,0.5019920893755625,0.4490889823446196,0.03484568764542928,0.34854443728909246,0.9021833119932126,7.02995927939628
1,24,female,58,75,25,right,change,valid,anti,2,1.2733428228330013,1,f,1,change,0.8855640714446054,0.49760010724902026,1.2343727949428285,0.5019061322109337,0.3445429388102639,0.034785389334501815,0.34855405935923045,0.9022564397309907,7.045495716254663
1,24,female,1,105,55,left,change,valid,anti,1,1.6800443385018298,0,f,1,change,1.64398242111929,0.49661774272106474,0.9219085569729941,0.5018458339000063,0.4978982190186798,0.03487519532791339,0.3484860633925564,0.902260609294899,8.070383522908742
1,24,female,2,105,105,left,same,valid,clock,2,1.545437663095072,1,j,1,same,1.1687339151048945,0.4994782672924246,0.9383626186408947,0.5019279422358522,0.4002662747698196,0.03488513813317695,0.3484924781078007,0.9022679862155201,7.3572456758411136
1,24,female,3,165,115,left,change,valid,anti,2,2.049457122770036,1,j,0,same,1.2644225218027714,0.49846063867869367,1.2081940271327767,0.5019600158047979,0.29574204126402037,0.03481168966027326,0.348581001157072,0.9021345601686335,8.121802906634912
1,24,female,4,165,165,left,same,valid,anti,3,1.377347464520426,1,j,1,same,1.3463685663627984,0.49748644320952157,0.7826021414894058,0.5019645061056508,0.2957638512925769,0.034801746855009696,0.34854764464398613,0.902228856461079,7.107822679348828
1,24,female,5,105,105,right,same,valid,anti,3,1.3774812113024382,1,j,1,same,0.6426491228521627,0.49654710555422854,1.0920036743482342,0.5019333947439009,0.4002643503554282,0.03485081941471435,0.3485591911303345,0.9022538738463481,6.826852120319018
1,24,female,6,15,15,right,same,valid,clock,2,1.2894546595198335,1,j,1,same,0.4648637258196686,0.49563481776407015,0.7002506870157958,0.5019208860521758,0.4490315706552792,0.03488642107731721,0.34862462121236604,0.9021319942839909,6.218487718389952
1,24,female,7,135,135,left,same,valid,clock,2,1.2494037523520092,1,j,1,same,0.9870984068420512,0.4947423906968326,0.9540764223347651,0.5019378850429348,0.34455737191819935,0.0348408766076318,0.34850626974184706,0.9022307808754704,6.842389840119722
1,24,female,8,165,165,right,same,valid,clock,3,1.40945759745955,1,j,1,same,0.6888802860448777,0.49380224046794435,0.7883102745763608,0.5019519974139257,0.40030572525938624,0.03484119734457636,0.34848157309170347,0.9022394407402317,6.592952089784376
1,24,female,10,75,25,right,change,valid,anti,2,1.8003907843649358,1,f,1,change,1.8884571073740517,0.4928682587203608,0.5451310397747875,0.5019661097849166,0.4978953323970927,0.0348569133948331,0.34852070284796355,0.9022028768704331,8.044996010048635
1,24,female,11,75,125,right,change,valid,clock,3,1.6094667705001484,1,f,1,change,1.1419210528329131,0.49193309887399156,0.785700127524251,0.5019959382025263,0.4490431171398086,0.0347978980262269,0.3486050563333265,0.9022262905764364,7.295067854842273
1,24,female,12,45,45,right,same,valid,anti,3,1.40144112960661,1,j,1,same,0.8550223360325617,0.49098961113671097,1.0765624959894922,0.5019366021006135,0.34449739434239746,0.034820349525034544,0.3485944720578118,0.9022124989423901,6.983266577544782
1,24,female,13,75,75,right,same,valid,anti,3,1.257441068024491,1,j,1,same,0.7205814809767617,0.49003073059840774,0.5822667802513024,0.5019157542810717,0.40034389280663163,0.034853706038120436,0.34850851489136403,0.9022048012848245,6.265508212116401
1,24,female,15,75,25,left,change,valid,anti,2,1.8082722224917234,1,f,1,change,1.0569058884502738,0.48907883472556896,1.1328583451577288,0.501861549948444,0.44905594656847825,0.03488706254756835,0.3486089051621093,0.9021352016407036,7.764309943577246
1,24,female,18,105,155,right,change,valid,clock,1,1.440406667197749,0,f,1,change,0.3488773609351483,0.48816964895796283,1.314060539503771,0.501849682728789,0.2957616061412409,0.034888986961959745,0.34858068042194645,0.9022144233567815,6.719058627919367
1,24,female,19,135,135,right,same,valid,anti,1,0.9454521603474859,0,f,0,change,0.4787143758858292,0.4907642618037383,0.7950296872950275,0.5019144713369315,0.2957330606659525,0.03488193077646429,0.34851396739759366,0.9022330260268063,5.828249565724036
1,24,female,20,75,75,left,same,valid,anti,3,1.777347207931598,1,j,1,same,0.8610852027941291,0.4931867577250821,0.5930819877394242,0.5019574499201553,0.4490630027521547,0.034876799005360226,0.3485460409665393,0.9022468176590337,6.998443469692575
1,24,female,22,135,135,right,same,valid,clock,3,1.816269766941332,1,j,1,same,0.7015111782802705,0.49231666438377475,1.0081919102758548,0.5019385265150049,0.2957619268763665,0.034778653885950916,0.3485890195497632,0.9022256491061853,7.140213135280646
1,24,female,23,105,155,left,change,valid,clock,2,1.1774713967915886,1,f,1,change,1.0750502272094309,0.49144062763005225,0.5995534717712871,0.5018294763794984,0.34465455483041296,0.03481072745489655,0.3484982513491559,0.9022837022639578,6.499131447748368
1,24,female,24,105,105,right,same,valid,clock,3,2.1294155682535347,1,j,1,same,0.9266435779718449,0.49055246704208844,1.2093454682617448,0.5018814355607901,0.4979126521247963,0.03487936489182175,0.3484995342914772,0.9022497042824398,8.07469870089335
1,24,female,25,45,95,right,change,valid,clock,3,1.209455480602628,1,f,1,change,0.8962779264566052,0.4896492952002447,1.1601510280215734,0.5019580913922255,0.4002601807915198,0.03488674181244278,0.34851108077600657,0.9022205173332623,6.982358574803584
1,24,female,26,105,105,left,same,valid,anti,2,1.2574356155182613,1,j,1,same,1.2479129728617409,0.48877415752547637,0.8366448224278429,0.5019805428892141,0.29570611886629194,0.0348549889804417,0.34855598377362185,0.9021278247200826,6.951492254873301
1,24,female,28,45,95,left,change,valid,clock,3,1.1203926318030426,1,f,1,change,0.8340798991102929,0.4879359785908286,1.0418130290527188,0.501979901418963,0.497877371199138,0.03486140369204804,0.34862365900335135,0.9022019146632374,6.812723071672735
1,24,female,30,75,75,right,same,valid,clock,2,1.7362279301778472,1,j,1,same,1.2120024427222233,0.4871283801546791,1.0456679513208655,0.5019378850429348,0.29577860513381893,0.03476454151496,0.3485056282715959,0.902250987224761,7.608248937081953
1,24,female,31,165,165,right,same,valid,anti,1,0.9053435207551956,0,j,1,same,1.7260442512615555,0.4863455253747617,1.0354566891364811,0.5019279422358522,0.4978841066476889,0.0348264435033343,0.3485765108580381,0.9021817083157657,7.482224186551321
1,24,female,32,45,45,left,same,valid,anti,3,1.673469256842509,1,j,1,same,0.9515150271090533,0.488637306000671,0.9309792830390506,0.5018852843895729,0.34453941071842564,0.03488770401963848,0.3485078734192939,0.9022291771962045,7.216670750702178
1,24,female,33,15,15,left,same,valid,clock,3,1.289423227421139,1,j,1,same,0.8016952164180111,0.48783079426911374,0.6570928132114204,0.5019070944163104,0.4978953323970927,0.03484376323103788,0.3485870951353718,0.9022054427568946,6.5619427217370685
1,24,female,34,15,15,right,same,valid,anti,3,1.961462003084307,1,j,1,same,0.5382621642220329,0.4870528184162778,0.6736886400540243,0.5018801526184689,0.4491438281474984,0.03480591641891806,0.3485136466624681,0.9023209076040075,6.936321777440753
1,24,female,36,135,135,left,same,valid,anti,2,1.2880248198107438,1,j,1,same,0.8258129366822686,0.4862979637525631,1.1246295502769499,0.501926659293531,0.2957529462782986,0.034819708052964415,0.3485049867995258,0.9022221210125281,6.859421546767408
1,24,female,37,135,85,left,change,valid,anti,3,1.4814531379488471,1,f,1,change,1.0766471702117997,0.4855612184908648,0.6565552601932723,0.5019045285316679,0.29577764292662323,0.03484119734457636,0.34853673963152687,0.9022031976073777,6.82698715004517
1,24,female,38,165,215,right,change,valid,clock,3,1.3054580875414104,1,f,1,change,1.1121763456139888,0.4848379001839536,1.123440262335862,0.5019426960789133,0.3445137518647243,0.03484440470128902,0.3485508520025178,0.9022291771980235,7.201444144520792
1,24,female,39,165,215,left,change,valid,clock,2,1.4254055382079969,1,f,1,change,0.8736692676193343,0.4840741506292212,1.273182454988273,0.5018551352350187,0.497947612315329,0.03485049867958878,0.34852358946773165,0.9022317430844851,7.388452937810143
1,24,female,40,15,325,left,change,valid,anti,2,1.5853917080839892,1,f,1,change,1.2379929386825097,0.48331477225957487,0.7405475984578516,0.5020084468942514,0.29565832924890856,0.03482451908894291,0.34860377339100523,0.9022365541186446,7.170033856858936
1,24,female,41,135,85,right,change,valid,anti,3,1.2654527248414524,1,f,1,change,0.9214483012547134,0.48255482534167454,1.1926944748774986,0.5018631536258908,0.40032945970233413,0.03483991440225509,0.3485479653809307,0.902228856462898,7.092124591703396
1,24,female,42,15,65,right,change,valid,clock,2,1.2414822222617659,1,j,0,same,0.8440634389535262,0.4817894796702342,0.8035644640240207,0.5018782282040775,0.34449001742177643,0.03488449666292581,0.3485822841012123,0.902233988232183,6.545883806440543
1,24,female,44,135,185,right,change,valid,clock,3,1.2483177413014346,1,f,1,change,0.8472278172775987,0.4810139529908335,0.812764767311819,0.5018997174956894,0.29568013927746506,0.03486140369386703,0.34854636170348385,0.9022067256992159,6.531786189891136
1,24,female,45,45,355,right,change,valid,anti,2,1.5453719122779148,1,f,1,change,0.8564845700475416,0.48022345241256126,0.8329162700247252,0.5019654683110275,0.40029225436228444,0.03482355688174721,0.34856817173022137,0.9022307808772894,6.951516630788319
1,24,female,46,15,65,left,change,valid,clock,1,1.6574315101006505,0,j,0,same,1.9329553356310498,0.4794241538347155,0.6853823426026793,0.5019770147973759,0.4978792956135294,0.03486108295874146,0.3484838182430394,0.9022160270342283,8.090418277828576
1,24,female,47,45,45,right,same,valid,clock,2,1.3214422714245302,1,j,1,same,0.8058320653599367,0.4815850922491909,0.8381282249974902,0.5018798318833433,0.40035992959201394,0.03480046391268843,0.34853192859736737,0.9021878022940655,6.671116981287923
1,24,female,48,165,115,right,change,valid,anti,1,0.9534105750408344,0,f,1,change,1.5224867792749137,0.4808279120722628,0.6589396093186224,0.5019471863779472,0.4978991812258755,0.03483895219505939,0.34851974064076785,0.9021817083139467,6.936252498531758
1,24,female,50,15,325,right,change,valid,anti,3,1.1761759453365812,1,f,1,change,0.8132859628094593,0.48283854744229143,1.0788964896109974,0.5019523181490513,0.49793510362360394,0.034796615083905635,0.34854443728727347,0.9022423273599998,6.89066248598283
1,24,female,51,75,75,left,same,valid,clock,2,1.713402774748829,1,j,1,same,0.7980590358947666,0.48211891136514595,0.7259242961135897,0.5018804733554134,0.4979299718524999,0.034837348517612554,0.3485630399591173,0.9021942170056718,7.045629463036676
1,24,female,52,15,15,left,same,valid,anti,3,1.0893806978692737,1,j,1,same,1.2290992587168148,0.4813910947710231,0.596098186175368,0.5019324325348862,0.44910790574977,0.034854347508371575,0.3485556630384963,0.902120127064336,6.670813244587407
1,24,female,53,75,125,left,change,valid,clock,3,1.0974330881199421,1,f,1,change,0.9693803258160187,0.4806508184666109,1.227855124971029,0.5018952271966555,0.3445320337978046,0.03480655789098819,0.3485986416199012,0.9020755448018463,6.951864629012562
1,24,female,54,135,185,left,change,valid,clock,3,1.13741407490852,1,f,1,change,0.9272946714245336,0.4798934207569213,0.7036206569173373,0.5018653987772268,0.4490604368675122,0.03488064783414302,0.3485441165539669,0.9022394407402317,6.530591128706874
1,24,female,55,45,355,left,change,valid,anti,1,1.145423165840839,0,f,1,change,1.4447981802750292,0.47914561090588637,0.859041795709345,0.5019981833520433,0.2957000248898112,0.034877440477430355,0.3485242309398018,0.9022545153165993,7.061033436053549
1,24,female,56,165,165,left,same,valid,clock,2,1.0654727387482126,1,j,1,same,0.9414195505069074,0.481206526164093,1.3027648699480778,0.5018596255340526,0.34451086524313723,0.03491047625357169,0.34850755268416833,0.9022311016124149,6.9673266551890265
1,24,female,57,45,45,left,same,valid,clock,3,1.28138976057744,1,j,1,same,0.970145601173499,0.48048185530695164,0.8850935521877545,0.501907415153255,0.40034164765711466,0.034745297372865025,0.3485925476416014,0.9021813875806401,6.842540906629438
1,24,female,58,105,55,right,change,valid,anti,2,1.2902151238413353,1,f,1,change,1.0016713536842872,0.47974085964192653,0.78116941515691,0.5019433375509834,0.40035800517762254,0.03478186124084459,0.34853289080456307,0.9021226929489785,6.780082121165833
1,24,female,1,75,75,left,same,valid,anti,3,1.7759144816009211,1,j,1,same,0.9285740860959777,0.47901826814055337,0.7353144749286002,0.501897793083117,0.2957484559792647,0.03480591641891806,0.3485909439641546,0.9021878022922465,7.057825116940876
1,24,female,2,15,15,right,same,valid,anti,3,1.297449958818106,1,j,1,same,0.5381187953680637,0.4783255206778907,0.5084921188827138,0.5019927308458136,0.4489908372233913,0.03484504617335915,0.34857234129412973,0.902180746106751,6.109091189005994
1,24,female,6,75,125,right,change,valid,clock,2,1.3683068876071047,1,j,0,same,0.6811951381587278,0.4776582309919934,1.0575582648452837,0.5019407716645219,0.49791585948150896,0.0348351033662766,0.3484812523583969,0.9023212283391331,6.921765829589276
1,24,female,7,15,65,left,change,valid,clock,3,0.7854470670645242,1,f,1,change,1.0534935814375785,0.4770123603712478,0.6878558562493708,0.5019038870595978,0.2957510218639072,0.03478763448401878,0.3485421921377565,0.9022718350443029,6.14057524587588
1,24,female,9,75,75,left,same,valid,clock,2,1.16802573069981,1,f,0,change,1.8665171824522986,0.47638416461861705,1.2132177102557762,0.5018557767052698,0.4979793651473301,0.034826122766389744,0.34853417374506535,0.9022185929188709,8.060701153879563
1,24,female,10,135,85,left,change,valid,anti,2,1.1853711168532755,1,f,1,change,0.9848429934645537,0.47577014710052346,1.2203091763767588,0.501975411119929,0.4978327889366483,0.03489091137817013,0.3485479653809307,0.9022522701670823,7.201418485665272
1,24,female,11,105,155,right,change,valid,clock,2,0.9212904992964468,1,f,1,change,0.9282155035925825,0.475167016890316,0.8150875351839204,0.5019574499219743,0.4003079704089032,0.03486204516593716,0.3485431543449522,0.9022067256992159,6.374338322269978
1,24,female,12,15,15,left,same,valid,anti,3,1.8253809057059698,1,j,1,same,0.8725466927025991,0.47457165115921524,0.6744821401534864,0.5019112639802188,0.4002746138976363,0.0348921943204914,0.3485364188945823,0.9022124989423901,7.076432598034444
1,24,female,13,15,65,right,change,valid,clock,3,1.8014671733435534,1,j,0,same,0.7972988923083904,0.4739399899757524,0.7075410092656966,0.5018791904112732,0.2957314569866867,0.03488513813499594,0.34853321153968864,0.902241365154623,6.920083570890711
1,24,female,14,165,215,right,change,valid,clock,2,0.825243951567245,1,f,1,change,1.612375201742907,0.4733097126591433,0.5563029053519131,0.5019869576044584,0.4978857103269547,0.034842480288716615,0.3485296834460314,0.9023058330276399,6.795841148594263
1,24,female,15,165,215,left,change,valid,clock,2,2.697395818631776,1,f,1,change,0.8654032673985057,0.4726773883971477,0.7823814753319311,0.5019061322091147,0.44903990978309594,0.0348626866361883,0.3485700961427938,0.9022602885597735,8.10601950329692
1,24,female,16,105,105,left,same,valid,clock,2,1.9133795534835372,1,f,0,change,1.9520769560385816,0.4720396318426562,0.9510236600308417,0.5018718134906521,0.4979488952576503,0.034849215737267514,0.3485040245923301,0.9022420066248742,8.620906771115187
1,24,female,17,45,95,left,change,valid,clock,2,1.2414129433527705,1,f,1,change,0.9047527256116155,0.4713930677838019,0.6850481360124832,0.50195103520673,0.34452305319791776,0.034803671267582104,0.3485556630366773,0.9021964621570078,6.483855127538845
1,24,female,18,135,135,right,same,valid,anti,3,1.217433460173197,1,j,1,same,1.1424579643808102,0.47073429696727415,0.6543874076596694,0.501890416160677,0.2957606439358642,0.03477512579229369,0.34860569780539663,0.9021855571445485,6.624106109631612
1,24,female,19,135,185,right,change,valid,clock,3,1.1934186960679654,1,f,1,change,0.7921908556982089,0.4700598625214998,1.1820261643351841,0.5018891332183557,0.3445961809356959,0.03487359165046655,0.3484260858185735,0.9022561189958651,6.827082408544811
1,24,female,20,45,45,right,same,valid,anti,4,1.6254458226103452,1,j,1,same,1.2348859720477776,0.4693805800078816,0.7305204385611432,0.5019709208190761,0.40032176204476855,0.034865573255956406,0.3486252626826172,0.9023263601102371,7.295138737430534
1,24,female,21,15,15,left,same,valid,clock,2,1.8734008118462953,1,f,0,change,0.8447892638214398,0.46872924971523866,1.1937403939664364,0.5020325020723249,0.4979508196720417,0.03484536691030371,0.3485649643716897,0.9023911487220175,7.716004903408248
1,24,female,22,165,115,right,change,valid,anti,2,1.3611339546205272,1,j,0,same,1.7638320473961357,0.4681028905075661,0.5148279317163542,0.5020119749879086,0.2957596817268495,0.034831254539312795,0.3486214138556534,0.902383451064452,7.247909765503209
1,24,female,23,135,135,right,same,valid,clock,1,1.1934542977305682,0,f,0,change,1.0482652689443057,0.4674979287740855,1.1586435702756717,0.5020103713104618,0.4978885969485418,0.034859479279475636,0.3486114710485708,0.9023164173049736,7.2014386920145625
1,24,female,24,105,55,left,change,valid,anti,2,1.1214549084106693,1,f,1,change,0.959002922543732,0.4692595402654159,1.210059746645129,0.5019654683128465,0.3446253678848734,0.03481746290344745,0.3485851707227994,0.9023747912015097,6.9518742510827
1,24,female,26,15,325,left,change,valid,anti,3,1.511654572792395,1,f,1,change,1.099310995588894,0.4686276503153485,1.198752209869781,0.5019831087756756,0.4491528087455663,0.03487487459096883,0.3485623984870472,0.9023484908739192,7.577050976447936
1,24,female,27,165,115,left,change,valid,anti,3,1.1372806488616334,1,f,1,change,2.8459609112996986,0.46801946414006473,1.110204462589536,0.5019494315274642,0.4003743626981304,0.034900854183433694,0.3485790767426806,0.902282098586511,8.80844541976694
1,24,female,28,75,75,right,same,valid,anti,3,2.24144950722075,1,j,1,same,0.6183671859162132,0.4674316088886429,0.7793146006588358,0.5020328228074504,0.40031598880341335,0.03481553848905605,0.34860826369003917,0.902325718639986,7.357042650148287
1,24,female,29,75,75,right,same,valid,clock,3,1.617394715301998,1,j,1,same,0.5370709518665535,0.4668609534918526,1.0170458190186764,0.5019696378767549,0.4491486391816579,0.034854988978622714,0.34859960382709687,0.9023218698112032,6.936329154361374
1,24,female,30,135,135,left,same,valid,clock,4,1.033007230666044,1,j,1,same,1.6513343246206205,0.46630457320689084,0.6090520592515531,0.501996900411541,0.34457180502249685,0.03485819633715437,0.34861596134760475,0.9023051915555698,6.951628888278719
1,24,female,32,165,165,right,same,valid,clock,3,1.3753819962075795,1,j,1,same,0.47386196562183613,0.4657597178667804,1.2103609174573648,0.5019577706552809,0.3445538438263611,0.03486300737131387,0.34856079480778135,0.9023436798397597,6.719008913887592
1,24,female,33,75,25,left,change,valid,anti,3,1.297490692249994,1,f,1,change,0.8560762735123717,0.46522378325999525,0.9194478727531532,0.5019952967322752,0.40041092656611,0.03486108295874146,0.3485572667159431,0.9023497738180595,6.780223886340536
1,24,female,34,135,185,left,change,valid,clock,3,1.1614105570788524,1,f,1,change,1.3311272063401702,0.4646942851419204,0.8172271629773604,0.5019430168140389,0.4491929007072031,0.034883213720604545,0.3485963964703842,0.9022397614753572,7.07620295128072
1,24,female,35,105,55,right,change,valid,anti,2,1.2733405776834843,1,f,1,change,2.2533115960068244,0.4641323365760551,1.309401853595773,0.5019940137899539,0.3445352411545173,0.034830292332117097,0.34861211251882196,0.9023622825097846,8.495999142993242
1,24,female,36,45,95,right,change,valid,clock,2,1.057445686617939,1,f,1,change,1.0704422175422224,0.4635717470024923,1.124971133787767,0.5019632231615105,0.4980098350388289,0.03483831072298926,0.34864354461569746,0.9023045500853186,7.060930159161217
1,24,female,37,75,25,right,change,valid,anti,3,1.2254463999342988,1,f,1,change,0.7931277246498212,0.463009758613152,1.2411820136549068,0.5020132579302299,0.40035511855603545,0.03486140369204804,0.348629111509581,0.9023154550977779,6.967477400963617
1,24,female,39,45,45,left,same,valid,clock,3,0.5364455172693852,1,j,1,same,1.015046994194563,0.46244364709450114,0.9669052084918803,0.5019356398934178,0.4980056654767395,0.03488706254938734,0.3485553423015517,0.9023446420451364,6.329070328356465
1,24,female,40,45,45,right,same,valid,clock,3,1.161379766454047,1,j,1,same,0.7004274123810319,0.4618706961718228,1.0359371511985955,0.5019859953972627,0.344623443470482,0.0348970053546509,0.3485155710768595,0.9023231527553435,6.546080096682999
1,24,female,41,165,165,left,same,valid,clock,4,0.48944234327063896,1,j,1,same,1.2140413595079735,0.4612881728888537,0.7938779254309338,0.5019978626187367,0.4491181692919781,0.0348921943204914,0.34857875600755506,0.9023571507386805,6.265420009802256
1,24,female,42,75,125,left,change,valid,clock,2,1.2014742936753464,1,f,1,change,1.2460235189064406,0.46069330326621366,0.8188388598227903,0.5019138298666803,0.4492050886638026,0.034820028789908974,0.3485899817569589,0.9023840925347031,7.029958958661155
1,24,female,43,135,85,right,change,valid,anti,2,1.8174180007135874,1,f,1,change,1.2190890978090465,0.46008324800038786,1.2731753988027776,0.5019478278500173,0.49801689122432435,0.034780257563397754,0.3486220553259045,0.9023703009006567,8.121741325383482
1,24,female,45,135,135,left,same,valid,anti,2,0.6164745246060193,1,j,1,same,1.6564782836285303,0.4594646589795177,1.0801868092949007,0.5019847124531225,0.40036345768567116,0.03489572241232963,0.3485983208847756,0.9023260393751116,7.077867248781331
1,24,female,48,45,355,left,change,valid,anti,1,0.568399772660996,0,f,1,change,2.244041051602835,0.4588702744363832,1.0890137762398808,0.5020292947137932,0.4979097655050282,0.034859800014601205,0.3485992830919713,0.9023417554253683,7.717420630746346
1,24,female,49,105,155,left,change,valid,clock,2,0.881459616810389,1,f,1,change,1.0342625901594147,0.46055776691151,0.5530015728872968,0.5018990760254383,0.4004080399463419,0.03485563045069284,0.3485919061713503,0.9023635654521058,6.187241326664662
1,24,female,50,165,165,left,same,valid,anti,1,0.8254559578563203,0,f,0,change,0.651910045186014,0.45995558904008826,1.158149316575873,0.5019247348791396,0.34462216052634176,0.03486813914423692,0.3485354566892056,0.9023350199749984,6.296566011254981
1,24,female,51,105,105,right,same,valid,anti,3,1.2334391333461099,1,j,1,same,0.5974135232427216,0.4615688170418629,0.7422195936160279,0.5019337154790264,0.34468887355069455,0.03475876827178581,0.3486384128464124,0.9023090403843526,6.234180994999406
1,24,female,52,105,105,left,same,valid,anti,3,0.4414051174026099,1,j,1,same,1.2246063931597746,0.4610044224425593,0.931633583850271,0.5020741977114085,0.2957523048062285,0.03485114014983992,0.3485935098487971,0.9023382273317111,6.202832288590798
1,24,female,53,15,325,right,change,valid,anti,3,0.6093721534707583,1,f,1,change,1.8936430827579898,0.4604266692167423,0.9020181331125059,0.5020062017447344,0.2957885479390825,0.034796935819031205,0.3485947927911184,0.9023510567603807,7.014239060988984
1,24,female,54,45,355,right,change,valid,anti,2,0.6334302168943395,1,f,1,change,1.30244156837216,0.4598321574216907,0.513120334899213,0.5019645061056508,0.2957333814010781,0.03489123211147671,0.34857683159316366,0.9023244356976647,6.062549553664212
1,24,female,55,105,105,right,same,valid,clock,2,0.6253704497230501,1,f,0,change,2.2386193354868738,0.4592459530953938,0.9863950334711262,0.5020738769762829,0.497903992261854,0.03484729132287612,0.34860826369003917,0.9022744009289454,7.653813932243793
1,24,female,56,15,15,right,same,valid,clock,1,0.5451781879201008,0,f,0,change,0.49989672310766764,0.4586833087792761,0.6277759674030676,0.5019407716645219,0.2958302435799851,0.03478635154169751,0.3486191687043174,0.9022744009307644,5.282571671597907
1,24,female,57,45,45,left,same,valid,anti,3,1.2093425816401577,1,j,1,same,0.694881892288322,0.46029968854684256,0.8073462585543894,0.501880794090539,0.3445884832799493,0.034876478272053646,0.34855598377362185,0.902301342728606,6.374370716575868
1,24,female,58,165,165,right,same,valid,anti,3,0.5533643249527813,1,j,1,same,0.9339258818308735,0.45971424618375395,0.9082455372845288,0.501945903435626,0.40035030752005696,0.03485819633715437,0.34857875600755506,0.9023125684761908,6.109309610010314
1,24,female,1,135,135,left,same,valid,clock,2,1.1519382699243579,1,f,0,change,0.9117691395822476,0.45914381293397577,0.9417900002299575,0.5019645061038318,0.49801785343152005,0.034882251513408846,0.34857394497157657,0.9022936450710404,6.8163980612171144
1,24,female,2,165,165,left,same,valid,clock,2,0.8893878823491832,1,f,0,change,0.9043867661894183,0.45859588962190306,0.7042188289815385,0.5019757318550546,0.34458431371422193,0.034848895002141944,0.3485537386241049,0.9023751119366352,6.156040158673932
1,24,female,3,75,25,right,change,valid,anti,2,1.9374789918128954,1,j,0,same,0.4681098917444615,0.4580677206227909,0.8350555770794017,0.5020055602726643,0.40031598880341335,0.034871987971200724,0.3485867743984272,0.9023481701387936,6.952024034650094
1,24,female,4,165,215,right,change,valid,clock,3,1.5854202535610966,1,f,1,change,0.8043740009088651,0.45755674761967075,0.652182991258087,0.5019388472501305,0.44917301509485696,0.034853706036301446,0.34859030249390344,0.9023856962139689,6.79579143456067
1,24,female,6,135,185,left,change,valid,clock,2,0.3764224627884687,1,j,0,same,1.183270298079151,0.4570605838229037,1.1335168155310384,0.5020190311734041,0.2957696245339321,0.03478699301194865,0.34862750783213414,0.9023558677945402,6.31348738482302
1,24,female,7,75,75,right,same,valid,anti,3,1.5534316794492042,1,j,1,same,0.5063284359130193,0.4565769908007566,0.8811170710923761,0.5019433375509834,0.4492477465119009,0.03478987963353575,0.3486441860877676,0.902265099595752,6.701519838145032
1,24,female,8,165,165,right,same,valid,clock,3,1.257353827917541,1,j,1,same,0.6790673775885807,0.45610385755273003,0.8337091286502982,0.502002032182645,0.34464397055489826,0.03484697058775055,0.3485745864436467,0.9023071159699612,6.421455357440209
1,24,female,9,45,95,right,change,valid,clock,3,0.8333906381103589,1,f,1,change,1.3055475727996964,0.45563918150373334,0.900157224636132,0.5019481485851429,0.4003451757507719,0.03490791036892915,0.34860826369185816,0.9022846644729725,6.748960816361432
1,24,female,10,135,85,left,change,valid,anti,2,0.5054813729529997,1,f,1,change,1.169192887877216,0.45518105113648855,0.9208244703368109,0.5020129371951043,0.4491688455309486,0.03487391238559212,0.3485829255714634,0.902310964798744,6.3589837425497535
1,24,female,11,105,105,right,same,valid,clock,3,1.4414625290901313,1,j,1,same,0.4457902157664648,0.45472763001279165,0.976000951943206,0.5019426960789133,0.400447169698964,0.03480687862611376,0.34857715232828923,0.9023494530829339,6.577154574075394
1,24,female,12,45,95,left,change,valid,clock,2,0.6731934241488489,1,f,1,change,0.8169728195753123,0.4542458481252556,0.7562469690474245,0.5020058810096089,0.49793061332457,0.034843442494093324,0.34857586938596796,0.9023196246635052,6.062469690477883
1,24,female,13,135,135,right,same,valid,clock,4,1.1534774805058987,1,j,1,same,0.5196325523629639,0.4537649729543448,0.8893586954018247,0.5020292947156122,0.49793478288847837,0.03476518298703013,0.3486451482967823,0.9023221905463288,6.3747228843622
1,24,female,14,105,55,left,change,valid,anti,2,0.5132733258233202,1,f,1,change,1.7929365661784686,0.4532829334731912,0.9874781579001137,0.5020318606002547,0.497894370189897,0.03485627192276297,0.3486374506392167,0.9023253979030414,7.107747306461533
1,24,female,15,75,125,left,change,valid,clock,2,1.3294311560093774,1,j,0,same,1.2400219126629963,0.4527976786069846,0.5084292546871438,0.5020068432168046,0.4003240071942855,0.034802709062205395,0.34863777137434226,0.9023083989122824,6.79571702388057
1,24,female,16,135,135,right,same,valid,anti,3,1.4574220163249265,1,j,1,same,0.803948063912685,0.45230716069923366,1.1268483997846488,0.5020180689662084,0.4003727590188646,0.03475940974385594,0.34862462121054705,0.9023359821821941,7.092105668298245
1,24,female,17,15,65,right,change,valid,clock,2,1.2094484244189516,1,j,0,same,0.8964046170531219,0.451809319360157,0.5760730533274909,0.5020084468942514,0.34454229734001274,0.03484664985080599,0.3486233382682258,0.9024039781488682,6.3433344067289
1,24,female,18,75,125,right,change,valid,clock,2,1.5454273995510448,1,f,1,change,0.6748644570961915,0.45130206549727925,0.6728534443154786,0.501996900409722,0.40032721455281717,0.0347940491992631,0.34867241082793043,0.9023209076058265,6.608620349012199
1,24,female,19,165,165,right,same,valid,anti,3,1.8494238945513644,1,j,1,same,0.46465685129805934,0.4507832653365885,0.581198409665376,0.5019754111181101,0.29581933856570686,0.03484536691030371,0.3485527764169092,0.9023122477410652,6.499358207882324
1,24,female,20,45,45,left,same,valid,anti,3,1.1055156275251647,1,j,1,same,0.665791485878799,0.4502507242476407,0.7063571738308383,0.5019827880405501,0.4003881543321768,0.03488706254938734,0.34852743829651445,0.9023568300035549,6.1875181215673365
1,24,female,23,15,325,left,change,valid,anti,2,1.3839915043517976,1,f,1,change,0.7691726173834468,0.44970268718714235,1.1501642808216275,0.5018923405750684,0.4004163790741586,0.0347940491992631,0.3486582984587585,0.902245855451838,7.030980501836893
1,24,female,24,45,45,right,same,valid,clock,4,1.2174514213711518,1,j,1,same,0.5186934382618347,0.4491687648997953,0.8021888286475587,0.5019609780119936,0.4979533855585032,0.03482965086004697,0.34865990213620535,0.9022888340350619,6.343417156536816
1,24,female,25,45,355,right,change,valid,anti,1,0.5294082554810302,0,f,1,change,1.2435769470575906,0.44865556310381005,0.9679344493215467,0.5019263385584054,0.49796461130608805,0.034849215735448524,0.3485899817551399,0.9023696594304056,6.546115377608658
1,24,female,26,75,75,left,same,valid,anti,3,0.5614029235694034,1,j,1,same,0.875406051385653,0.45013714548701816,0.817227483712486,0.5019593743345467,0.4491428659403027,0.03486108295692247,0.34864065799411037,0.9022721557794284,6.015966543418472
1,24,female,27,15,325,right,change,valid,anti,2,0.9214361132981139,1,j,0,same,0.6503974556671892,0.4495979664950578,0.9569421957312443,0.5019892027539754,0.40037115534141776,0.03485563045069284,0.3485498897953221,0.902410072127168,6.233976044894007
1,24,female,29,75,75,right,same,valid,clock,2,0.9758659222170536,1,j,1,same,1.3702287358646572,0.4490772251000639,0.9317881784518249,0.5019330740087753,0.4491993154224474,0.03485146088678448,0.3485633606942429,0.9023363029173197,7.0466131594002945
1,24,female,30,135,85,right,change,valid,anti,1,1.457446071501181,0,j,0,same,0.6874616720851918,0.44857636789240046,0.9474731159334624,0.5019802221540886,0.29578020881126577,0.034836386310416856,0.3485364188964013,0.9023481701387936,6.702053542332578
1,24,female,31,15,15,right,same,valid,anti,3,1.8014450425816904,1,j,1,same,0.5595362418516743,0.45002645924042173,0.6306321187294088,0.5019786184766417,0.3446304996541585,0.03481040671795199,0.34857041687973833,0.9023609995674633,6.639778217684579
1,24,female,32,45,45,right,same,valid,anti,3,1.1214404753045528,1,j,1,same,0.7770899779079627,0.449497397733602,0.5189477816638828,0.5019224897296226,0.44920091909989424,0.03478763448401878,0.3486191687043174,0.9023420761604939,6.171776093131484
1,24,female,33,165,115,right,change,valid,anti,2,0.609413849109842,1,f,1,change,2.213977533107027,0.4489892560337895,0.9211326973363612,0.502008767631196,0.4003211205726984,0.03480527494684793,0.34863328107530833,0.9023298882057134,7.450903063410806
1,24,female,34,165,215,left,change,valid,clock,3,1.0814418480531458,1,f,1,change,1.192723661826676,0.4485002116170583,0.5974090329436876,0.5019590535994212,0.3446019541788701,0.034876478272053646,0.34850755268416833,0.9023510567603807,6.530541735410225
1,24,female,35,75,25,left,change,valid,anti,3,1.489410590436819,1,j,0,same,0.638857706253475,0.4480280641195476,1.3269852256307786,0.501936281365488,0.34460419932838704,0.03485755486508424,0.348607622219788,0.902347207931598,7.107914409754812
1,24,female,37,165,115,left,change,valid,anti,3,0.695805611077958,1,f,1,change,1.1122382476023631,0.44757076064651957,1.0936711792037386,0.5019616194840637,0.49793221700201684,0.03486108295692247,0.34863007371859567,0.9023401517461025,6.7189418801281136
1,24,female,39,45,45,left,same,valid,clock,3,0.6062562062361394,1,j,1,same,1.7978492747515702,0.4471263775657365,1.051582958927611,0.5020106920455873,0.4003098948251136,0.03482708497358544,0.3486162820827303,0.9023193039265607,7.171314875207827
1,24,female,40,135,185,right,change,valid,clock,3,0.5534409807842167,1,f,1,change,1.1524783888289676,0.4466931040210365,0.7197539828957815,0.5019523181490513,0.34458399298091535,0.0348626866361883,0.34852936271272483,0.9024402212817222,6.078361181744185
1,24,female,41,105,155,right,change,valid,clock,3,0.7134309994889918,1,f,1,change,1.417670034819821,0.44626922693686066,1.002369595282289,0.5019667512551678,0.34458976622227055,0.03481553848905605,0.34861403693321336,0.9023751119366352,6.795733702136204
1,24,female,42,105,155,left,change,valid,clock,1,0.42537154022465984,0,f,1,change,1.4269251839104982,0.44585311731137894,0.9751673598839261,0.5019276215007267,0.44916275155264884,0.03486749767216679,0.3486214138538344,0.9023266808471817,6.593125287059593
1,24,female,43,15,15,left,same,valid,anti,1,0.8254822581857297,0,f,0,change,0.09654561246316007,0.4470835025842101,0.676078441685604,0.5019285837097414,0.29581196164508583,0.03484600838055485,0.3485623984870472,0.902344962782081,5.204679726168251
1,24,female,44,105,105,left,same,valid,clock,3,0.7133838513418596,1,j,1,same,1.3995333937182295,0.4483563453203955,0.6006433316470066,0.5019151128090016,0.49804639890862745,0.034808482305379584,0.348564002166313,0.9022756838730857,6.515159572421908
1,24,female,45,105,105,left,same,valid,anti,3,0.5293133177165146,1,j,1,same,1.4765471648242965,0.44790510348694773,0.8280401253196032,0.502030898393059,0.4003098948251136,0.03488674181244278,0.348619489439443,0.9023507360252552,6.546138791314661
1,24,female,46,15,65,left,change,valid,clock,1,0.8653997393048485,0,f,1,change,2.024781643141978,0.44746762080768104,0.7023345067991613,0.5020007492385048,0.4979604417421797,0.03486236590106273,0.34865316668765445,0.902308719649227,7.404289262538441
1,24,female,48,165,165,left,same,valid,anti,3,0.6641493191418704,1,j,1,same,0.9907496619453013,0.4487448085610785,1.1196828437186923,0.5019032455875276,0.4003400439796678,0.03486942208655819,0.34855790818619425,0.9023629239800357,6.500658791108435
1,24,female,49,15,15,right,same,valid,clock,4,0.8334737086534005,1,j,1,same,0.4696118969859526,0.44828833006168367,0.9747231409528467,0.5019811843612842,0.29579849074616504,0.0348646110505797,0.34859575500013307,0.9023199453986308,5.890851399306484
1,24,female,51,45,355,left,change,valid,anti,1,0.5042750860211527,0,f,1,change,0.7974836360663176,0.447846918476814,0.7641168606915016,0.5019324325367052,0.44921599367808085,0.0347950114064588,0.3485915854344057,0.9023363029173197,5.829928296328944
1,24,female,52,135,135,left,same,valid,anti,2,0.9534606098077347,1,f,0,change,1.1476667119968624,0.44913208788830156,0.834900020270652,0.5020001077664347,0.4003272145509982,0.034871987969381735,0.3485524556799646,0.9023395102740324,6.655249545196057
1,24,female,55,105,105,right,same,valid,anti,4,0.8882451010831574,1,j,1,same,0.8996591221075505,0.4486692280174556,1.1122469074653054,0.5020106920437684,0.49805409656437405,0.034796935819031205,0.34857811453548493,0.9022939658061659,6.719056703503156
1,24,female,56,15,15,left,same,valid,clock,3,0.4974620184802916,1,j,1,same,0.9185911877229955,0.4482227411615398,0.6823318254482729,0.5019985040871688,0.29573177772181225,0.034836707045542425,0.3485925476416014,0.9023799229726137,5.703521549590732
1,24,female,57,75,75,left,same,valid,clock,2,0.545183961161456,1,f,0,change,1.0501412519970472,0.44779077675799,0.8791663566207717,0.5019859953954438,0.49794472569374193,0.03484119734457636,0.34861018810624955,0.9022930036007892,6.28084418916842
1,24,female,58,105,55,right,change,valid,anti,2,2.057429970569501,1,j,0,same,2.107820113464186,0.4473716011602898,1.0327445481343602,0.5020546328360069,0.29562208611605456,0.034918173911137274,0.3486085844269837,0.9023157758347224,8.807932242661991
1,24,female,1,15,15,left,same,valid,anti,1,0.8555249288601772,0,f,0,change,1.8405824945039058,0.44696358357244487,0.9830523261043709,0.501996900409722,0.29575839878452825,0.03482195320248138,0.34859992456404143,0.9023581129458762,7.297068283345652
1,24,female,2,105,155,left,change,valid,clock,2,0.8494498741438292,1,f,1,change,0.8972487933933735,0.4481594514985826,0.8299927642037801,0.5020199933805998,0.4491775053938909,0.0348206702619791,0.3485595118654601,0.902373828994314,6.343277315774685
1,24,female,3,45,95,left,change,valid,clock,1,0.849458213271646,0,f,1,change,0.7243648791863961,0.4477365729590894,0.6944325415879575,0.5020385960506246,0.3446083688922954,0.034842801022023195,0.3485344944820099,0.9023250771679159,5.922227368248059
1,24,female,4,45,355,right,change,valid,anti,3,0.8333604889539856,1,f,1,change,0.8608703098834667,0.4489688709288279,0.7726051307436137,0.5019715622911463,0.4979658942502283,0.03486140369204804,0.3485290419757803,0.902335340711943,6.2810026325987565
1,24,female,5,165,215,right,change,valid,clock,3,0.9454451041619905,1,f,1,change,0.7567935026636405,0.4485259948018325,0.6872150263388903,0.5019632231615105,0.40037115534141776,0.03488128930621315,0.3485457202314137,0.9022971731628786,6.09360959795049
1,24,female,6,15,15,right,same,valid,anti,3,0.5454421533941058,1,f,0,change,0.9311095017292246,0.44809834261518555,0.742183991953425,0.5019959382025263,0.29577764292662323,0.03489828829697217,0.34855694598081755,0.9023177002491138,5.828728103373578
1,24,female,7,135,135,right,same,valid,clock,3,0.5694113730314712,1,j,1,same,0.9747192921240639,0.447684208775041,0.9833605531021021,0.5019157542792527,0.34466513910956564,0.03485146088678448,0.34857137908693403,0.9023600373584486,6.1875447426282335
1,24,female,8,165,165,left,same,valid,clock,3,0.8254630140436348,1,j,1,same,0.6436341021581029,0.4472819924390324,0.865107228357374,0.5019446204914857,0.34459457725824905,0.03486781840547337,0.3485963964703842,0.9024068647704553,5.984668513248835
1,24,female,9,15,325,left,change,valid,anti,3,1.0493795047332242,1,f,1,change,1.3344683100312977,0.44689018506418154,0.7446045842116291,0.5019183201657142,0.2958504499274568,0.03482419835199835,0.3485518142097135,0.902410072127168,6.733345799259041
1,24,female,10,45,355,left,change,valid,anti,2,1.8574573613968823,1,f,1,change,1.0101407003330678,0.4465073590445422,1.3276026418370748,0.5020078054240003,0.49801240092347143,0.03483863145993382,0.34860184897661384,0.902340472483047,7.997044741347054
1,24,female,11,75,125,right,change,valid,clock,3,0.9454579335888411,1,j,0,same,0.6038481226696604,0.44613215729973965,1.0533101206219726,0.502047897383818,0.29573755096498644,0.03480655789098819,0.3486278285672597,0.9022888340350619,6.202997467471505
1,24,female,12,135,85,right,change,valid,anti,3,1.0494738010256697,1,f,1,change,1.0645884704499622,0.4457632836907589,0.5197541111901955,0.501900038232634,0.2957978492740949,0.03485595118581841,0.3486146784034645,0.902333095562426,6.234158222765473
1,24,female,13,45,95,right,change,valid,clock,3,0.9534157068119384,1,f,1,change,0.9684485886336915,0.44539949415244223,1.2478574855867919,0.5019305081223138,0.29578501984724426,0.03488064783596201,0.34856175701679604,0.9023998085849598,6.780199189692212
1,24,female,14,45,45,right,same,valid,clock,3,1.6813539023260091,1,f,0,change,0.9262814673802495,0.4450395884434483,0.6717337560203305,0.5020341057515907,0.2957808502833359,0.034854988978622714,0.34862750783395313,0.9022641373867373,6.889124558347248
1,24,female,15,45,45,left,same,valid,anti,3,0.6492370339401532,1,j,1,same,2.614722024793082,0.44468240242412904,0.5663050478669902,0.501985033188248,0.49797904441220453,0.034848574265197385,0.34854764464398613,0.9023391895389068,7.63828551377992
1,24,female,16,135,185,left,change,valid,clock,3,1.2654222549517726,1,f,1,change,0.8838879067261587,0.44430207106167874,0.613717480609921,0.5020013907087559,0.44917237362278684,0.034860120751545765,0.3485915854362247,0.9023343785047473,6.530524415682521
1,24,female,17,165,165,right,same,valid,clock,3,0.6174492403697514,1,j,1,same,0.8742985510452854,0.44392197384737164,0.8152700337923307,0.5019770147973759,0.44914446961774956,0.034895401675385074,0.3485890195497632,0.9023247564327903,6.062830518128976
1,24,female,18,105,55,right,change,valid,anti,3,0.8653885135572637,1,f,1,change,0.7556683618622628,0.44354076897239925,0.9379270595727576,0.5019529596211214,0.3446247264128033,0.03481104819002212,0.3485547008313006,0.9023253979048604,6.218663160811047
1,24,female,19,135,85,left,change,valid,anti,2,1.4892909560221597,1,f,1,change,1.9590757295445655,0.4431571224728951,0.6131648530135863,0.5019840709810524,0.4491136789911252,0.03482419835381734,0.34860633927746676,0.9023869791581092,7.825131052602956
1,24,female,20,135,135,left,same,valid,anti,1,0.9614414759998908,0,f,0,change,0.9429238008979155,0.44276969964634627,0.911751819854544,0.5020296154507378,0.29572696668765275,0.034900212711363565,0.3485822840993933,0.9023645276593015,6.421456319647405
1,24,female,21,105,105,right,same,valid,clock,3,0.505282196090775,1,j,1,same,0.912784268042742,0.4437905830137138,0.6567768885561236,0.5019869576026394,0.449224012070772,0.0348216324691748,0.3485842085137847,0.9023549055873445,5.828150779130738
1,24,female,22,75,25,left,change,valid,anti,3,0.7134149627054285,1,j,0,same,1.8357493283783697,0.4434148968705536,0.8762550387582451,0.5019885612819053,0.4003317048518511,0.03488032709901745,0.3486153198755346,0.9023055122925143,7.138515802005713
1,24,female,23,105,55,left,change,valid,anti,3,0.5612181798114761,1,f,1,change,1.6457073376623157,0.4430363374928355,0.7700953739658871,0.501972524498342,0.4003833432980173,0.0348617244289926,0.3485287212388357,0.9022753631361411,6.686627759288967
1,24,female,25,75,25,right,change,valid,anti,3,0.5841450084553799,1,j,0,same,0.6393872408771131,0.4426536072649618,1.1590858647941786,0.5019686756695592,0.49799700561015925,0.034820028789908974,0.34860088676941814,0.9023141721554566,6.204226847372411
1,24,female,26,15,15,right,same,valid,clock,3,0.8654869794136175,1,j,1,same,0.5687586759013357,0.44226539671532156,0.7250660074041662,0.5019513559418556,0.4003220827798941,0.03488481739987037,0.3486345640176296,0.9022683069506456,5.875104239099528
1,24,female,29,165,115,right,change,valid,anti,2,1.1361616020367364,1,j,0,same,0.7279497420004191,0.44187037648539723,0.9319539988046017,0.501972524496523,0.34462889597489266,0.03485691339301411,0.34856271922217275,0.9023260393769306,6.45390514947394
1,24,female,30,105,155,right,change,valid,clock,2,0.8574249670909921,1,f,1,change,0.9453126403204806,0.441467189241621,0.7917254682088242,0.501985033190067,0.29577860513199994,0.03478699301376764,0.3485983208829566,0.9023667728088185,6.203032748397163
1,24,female,31,165,165,left,same,valid,anti,3,0.8254315819467593,1,j,1,same,0.5813247795267671,0.4410544414554065,0.7148470475640352,0.5019952967304562,0.29577828439869336,0.034785389334501815,0.34862365900517034,0.9022567604661162,5.734874746298374
1,24,female,34,75,125,left,change,valid,clock,2,0.8398499341856223,1,j,0,same,2.138118731219947,0.4406306949767198,1.1459052315840381,0.5019542425634427,0.44911207531367836,0.03488577960706607,0.34860569780539663,0.902301342728606,7.8889298717822385
1,24,female,36,75,75,left,same,valid,clock,3,1.5038453001961898,1,j,1,same,1.000331319968609,0.4401944583255717,0.9147243982370128,0.5019779770045716,0.3445997090293531,0.03481104819002212,0.34856271922399173,0.9023654898646782,7.077810478564061
1,24,female,37,75,75,right,same,valid,clock,2,0.4894991134860902,1,j,1,same,1.0292591133838869,0.4397439526153407,1.2499749826147308,0.5019757318550546,0.3445378070391598,0.0348684598775435,0.3485935098506161,0.9023318126182858,6.421258104990557
1,24,female,39,15,65,left,change,valid,clock,2,0.9518219711644633,1,j,0,same,0.6920093834432919,0.4393043937097224,1.1028820667706896,0.501977656267627,0.29574236199914594,0.034883855190855684,0.34853898478104384,0.9023520189657575,6.360094770981959
1,24,female,41,15,325,right,change,valid,anti,2,0.7919195133017638,1,f,1,change,0.7596749921103765,0.4388816764366942,1.0336746816374216,0.5020094091014471,0.29568206369003747,0.034894118734882795,0.3485919061713503,0.9023494530829339,6.20417681260551
1,24,female,43,105,105,left,same,valid,anti,3,0.4559998742715834,1,j,1,same,1.0052122757097095,0.43847414576039456,1.0484089585315814,0.5019439790212346,0.4003634576838522,0.03487936489182175,0.3485595118654601,0.9023741497294395,6.235457843784388
1,24,female,44,135,135,right,same,valid,anti,3,0.44943409394727496,1,j,1,same,0.9746923503244034,0.4380802540098837,1.0135010481644713,0.5019058114739892,0.34467861000848643,0.034773201377902296,0.34860088676941814,0.9024338065682969,6.093939314241652
1,24,female,45,165,215,left,change,valid,clock,3,0.5386775169408793,1,f,1,change,0.9937610493452667,0.43769854924980045,1.0298819820945937,0.5020110127807129,0.4491277913639351,0.034820028789908974,0.34860633927746676,0.9022683069524646,6.327412124834154
1,24,female,46,45,45,right,same,valid,anti,3,0.5134038652504387,1,f,0,change,0.9884894375318254,0.437327664688571,1.0468386365919287,0.501943658286109,0.4003833432980173,0.03479469066951424,0.3485919061713503,0.9023135306852055,6.265485119145524
1,24,female,47,15,15,left,same,valid,clock,3,2.2493678299524618,1,j,1,same,0.9833945510854392,0.4369663090008968,1.011695947698172,0.5019651475759019,0.44911015090110595,0.03485563045069284,0.3486137161980878,0.9022660618011287,8.012392264881782
1,24,female,49,75,75,right,same,valid,anti,1,0.8399044592533755,0,f,0,change,0.34972025432944065,0.43661325745468527,0.8063375448073202,0.5019847124549415,0.4003429306012549,0.03479853949647804,0.3486422616733762,0.9023058330276399,5.720644986644402
1,24,female,50,165,115,left,change,valid,anti,2,0.5853795201292087,1,f,1,change,1.2436378868387692,0.43765157766510193,0.5616389850383712,0.5019795806820184,0.40035608076323115,0.03482195320430037,0.3485572667159431,0.9023590751512529,6.109159184972668
1,24,female,51,105,105,left,same,valid,clock,3,0.5694453710129892,1,j,1,same,1.1278863004808954,0.43728758664847894,0.8486021697117394,0.5020652171115216,0.49792355713725556,0.03485755486508424,0.3485848499840358,0.9023334162975516,6.3588625044576474
1,24,female,52,15,65,right,change,valid,clock,1,0.36939642674951756,0,j,0,same,3.1059293765665643,0.4369328345107589,0.8900197316597769,0.5019699586118804,0.4979889872192871,0.03484504617154016,0.34850530753465137,0.9023882621004304,8.168616525841571
1,24,female,53,165,165,right,same,valid,anti,4,1.1054389716955484,1,j,1,same,0.8163691950048815,0.4379735054860272,0.7433726384224428,0.5019667512551678,0.29575070112696267,0.034847932794946246,0.34860666001259233,0.9023488116090448,6.265449196749614
1,24,female,54,135,185,right,change,valid,clock,2,0.5693080961391388,1,j,0,same,2.4373510182722384,0.43760601474721317,0.7785910209404392,0.5019985040889878,0.40033298779417237,0.03489091137635114,0.3485707376148639,0.9023138514185121,7.4978436939509265
1,24,female,55,135,135,left,same,valid,clock,2,1.1933818114630412,1,f,0,change,2.216990524184439,0.4372486910404426,0.7672202992325765,0.5019006797028851,0.40040258744011226,0.03488032709901745,0.34857105834998947,0.9023321333552303,7.887705623650618
1,24,female,56,105,105,right,same,valid,anti,4,0.793448139604152,1,j,1,same,0.4869450951809995,0.4369003292718484,1.1633247076824773,0.5019446204933047,0.3446606488105317,0.03484953647239308,0.348554380094356,0.9023411139532982,6.093597730730835
1,24,female,57,75,75,left,same,valid,anti,2,0.6173661698248907,1,j,1,same,1.532675910697435,0.43655978494978165,0.5223174308284797,0.502013899400481,0.400357684442497,0.03482836791590671,0.3485957549983141,0.9024010915272811,6.3901945326106215
1,24,female,58,45,45,left,same,valid,clock,4,0.6734394284230802,1,j,1,same,0.9128192282332748,0.4362259668226873,0.8500753087409976,0.5019564877129596,0.3446561585114978,0.03486974282168376,0.3485556630366773,0.9023488116108638,6.093893449036841
1,24,female,2,165,165,right,same,valid,clock,3,0.5030447439112322,1,j,1,same,0.7398961842718563,0.43589783006222355,1.2123796278956434,0.5020616890196834,0.49793702803617634,0.03485146088678448,0.34854636170348385,0.9023651691295527,6.282278519174724
1,24,female,3,105,55,right,change,valid,anti,3,0.5852230011114443,1,f,1,change,0.9193054661063798,0.4355743699226397,0.92864561015449,0.5019869576026394,0.49800566547492053,0.03484504617335915,0.3485790767444996,0.902320586868882,6.249568931232716
1,24,female,4,15,15,right,same,valid,anti,4,0.6255112526923767,1,j,1,same,0.557654164816995,0.43525461581397235,0.8352640552802768,0.5019779770045716,0.49791874610309605,0.0348989297690423,0.34851108077600657,0.9024097513902234,5.828916054490037
1,24,female,5,165,165,left,same,valid,clock,3,0.47327758519350027,1,j,1,same,1.0962614406416833,0.43493762573229344,0.7975856300145097,0.5019568084480852,0.4979986092894251,0.03486140369386703,0.3485412299305608,0.9023350199749984,6.171391531037443
1,24,female,6,75,75,right,same,valid,clock,3,0.9694483217826928,1,j,1,same,0.49289794960168365,0.4346006462982676,0.8580074231067556,0.501958412127351,0.295757115842207,0.03483349968882976,0.3486528459525289,0.9023193039265607,5.922177654216284
1,24,female,7,135,185,right,change,valid,clock,3,0.48923386506976385,1,f,1,change,1.3626908056630782,0.4342645023067615,0.5708194027120044,0.5019382057780604,0.4492079752853897,0.03480623715404363,0.3485623984870472,0.9024139209541318,6.187513310531358
1,24,female,8,15,15,left,same,valid,clock,4,1.0894875028534443,1,j,1,same,0.4890295564346161,0.43392811107470103,0.8597913550202065,0.5019940137899539,0.34455929633259075,0.03484408396616345,0.34858260483451886,0.9023824888572562,6.093837320291641
1,24,female,10,105,105,right,same,valid,clock,3,0.800244208154254,1,j,1,same,0.49391628541889077,0.433590398745443,0.980011751755228,0.501968034197489,0.400338440302221,0.03482868865285127,0.3486611850803456,0.9022910791845788,6.001514834666523
1,24,female,11,135,135,right,same,valid,clock,4,0.6654906358016888,1,j,1,same,0.46423957416482153,0.4332502940607227,0.6749314908556698,0.5020270495642762,0.29576513423489814,0.03485210235885461,0.3485421921395755,0.9023497738180595,5.4074241331800295
1,24,female,12,45,355,left,change,valid,anti,3,0.5295201922363049,1,f,1,change,1.0383577434586186,0.43290672224185034,0.7334170025842468,0.501934036215971,0.49799411899039114,0.034796615083905635,0.34860345265587966,0.9023497738180595,6.109376323034667
1,24,female,13,75,25,right,change,valid,anti,3,0.4414432849498553,1,f,1,change,0.8293641222498991,0.43255859892573023,0.9071431687152653,0.5019936930530093,0.49795017820179055,0.034888345491708606,0.34857330349950644,0.902367093545763,5.984583839026527
1,24,female,14,105,155,left,change,valid,clock,3,0.7134784683730686,1,f,1,change,1.067444942511429,0.43220482410289757,0.8707085564583394,0.5019641853687062,0.4979565929133969,0.03486845987936249,0.3485716998220596,0.9023321333552303,6.468185906103827
1,24,female,15,75,75,right,same,valid,anti,3,0.5854443087373511,1,j,1,same,0.5221570629837515,0.4318442760057516,1.0940432326042355,0.5019260178214608,0.4979905908967339,0.03489540167720406,0.3485476446458051,0.9023276430543774,6.01582670265816
1,24,female,17,75,75,left,same,valid,clock,3,0.3990025761486322,1,j,1,same,0.8439168627446634,0.43147580489553927,0.95412677783861,0.5019215275224269,0.3446186324345035,0.034807840833309456,0.34862462121054705,0.9023055122925143,5.861038054648816
1,24,female,18,45,45,right,same,valid,anti,3,1.1454026387564227,1,j,1,same,0.9710609808353183,0.431098226696433,1.0080572012866469,0.502030898393059,0.3445342789473216,0.03479180404974613,0.34864065799592936,0.9023151343626523,6.78020464220026
1,24,female,19,105,105,left,same,valid,anti,3,0.47341967110514815,1,j,1,same,1.4087888635440322,0.43071031642425206,0.8398727064195555,0.5019792599468929,0.4491736565651081,0.0348970053546509,0.348581001157072,0.9023106440636184,6.483947820152025
1,24,female,20,165,165,right,same,valid,anti,3,0.649393232220973,1,j,1,same,0.7169167549764097,0.43031080135601235,0.8272642656811513,0.5019965796745964,0.29580137736593315,0.034784747862431686,0.3486204516466387,0.9023510567585618,5.797275478602387
1,24,female,21,75,75,left,same,valid,anti,4,0.8574442112330871,1,j,1,same,0.7351281274932262,0.429896583029359,0.7254454377271031,0.5020039565952175,0.4003134229169518,0.03489636388258077,0.34854379581702233,0.9023940353436046,6.031497848505751
1,24,female,23,105,105,left,same,valid,clock,3,0.6004537768549199,1,j,1,same,0.903198440455526,0.4294823239289339,1.221298645981733,0.5020129371932853,0.4491059813353786,0.034882572248534416,0.348537381103597,0.9024164868405933,6.500621906503511
1,24,female,24,135,135,right,same,valid,anti,4,0.5294066518017644,1,j,1,same,0.6496774040424498,0.42908405699303076,0.8257606567640323,0.5019856746621372,0.29578213322565716,0.03488994917097443,0.3485829255714634,0.9023263601120561,5.610224989672133
1,24,female,25,165,115,left,change,valid,anti,2,0.5694633322127629,1,f,1,change,1.3809948707948934,0.42870032007197967,0.7580462962723686,0.5020248044147593,0.40033779883015086,0.03482323614662164,0.34861692355480045,0.9023032671429974,6.421538107248125
1,24,female,26,45,95,left,change,valid,clock,3,0.7533516879684612,1,f,1,change,1.2429300231706293,0.428329743920118,0.9006530820133776,0.501941413134773,0.3445827100367751,0.034859800014601205,0.34858388777684013,0.9023096818564227,6.546242709677244
1,24,female,27,165,115,right,change,valid,anti,2,0.5854164047323138,1,f,1,change,1.2308219301121426,0.4279710427099185,1.0484086377964559,0.5019773355325015,0.3445817478295794,0.03484985720751865,0.3485232687326061,0.9023292467336432,6.514695467876663
1,24,female,28,165,165,left,same,valid,anti,4,0.6414755509613315,1,j,1,same,0.578904187268563,0.4276230053646196,0.9878867751685902,0.5019398094573262,0.40040290817341884,0.03486813914241793,0.3485210235830891,0.9024206564045016,5.922183748194584
1,24,female,29,15,65,left,change,valid,clock,2,0.5453927600974566,1,f,1,change,1.1430715317565046,0.4272844876171383,0.7996649594988412,0.5019449412284303,0.3445673147252819,0.034894439470008365,0.3485733035013254,0.9022994183142146,6.14066376892697
1,24,female,30,45,355,right,change,valid,anti,3,0.49743571815270116,1,f,1,change,0.957165748508487,0.4269544047126848,0.8705590936260705,0.5020854234608123,0.44910149103634467,0.03485306456605031,0.3486031319207541,0.902279853436994,6.0782928650423855
1,24,female,31,45,45,left,same,valid,anti,3,1.1854881853814732,1,j,1,same,1.1321411801527574,0.42663172468095634,1.0115041477529303,0.5020485388577072,0.4491784676010866,0.03478795521914435,0.34863039445372124,0.9023584336810018,7.092238132137936
1,24,female,33,105,105,right,same,valid,anti,3,0.9681377957513178,1,j,1,same,0.503357781946761,0.4263154621111888,1.0921573067444115,0.5019099810378975,0.4491771846605843,0.034854026773246005,0.34851300519039796,0.9023177002491138,6.329089893233686
1,24,female,37,135,185,left,change,valid,clock,1,0.40002636447388795,0,f,1,change,1.2267216450400156,0.42600467236983497,0.8278255531422474,0.5020045980654686,0.4491791090731567,0.034813293339539086,0.3486012075063627,0.9023119270059397,6.219932311940283
1,24,female,38,165,215,right,change,valid,clock,2,0.7454660802777653,1,f,1,change,1.0630101301157993,0.42692386350041567,0.7587371609497495,0.5018987552884937,0.40043017070820497,0.03483831072298926,0.3485601533375302,0.9023645276593015,6.281074156657269
1,24,female,39,15,15,left,same,valid,anti,4,0.6014076447991101,1,j,1,same,0.9673016378037573,0.4266065772054698,0.9818521331490047,0.5020369923713588,0.4979411976000847,0.034802388327079825,0.34860377339100523,0.9023398310109769,6.358977969306579
1,24,female,40,105,55,left,change,valid,anti,3,0.6173732260122051,1,f,1,change,1.2953860246470867,0.4262955370704943,0.8504059872375365,0.5020514254774753,0.3444768672579812,0.03484119734457636,0.3485524556817836,0.9023533019098977,6.421322252128448
1,24,female,41,15,65,right,change,valid,clock,3,0.6654415632401651,1,f,1,change,0.7082328361502732,0.4259898265413287,0.9783493786708277,0.5018913783678727,0.3445987468221574,0.03489155284660228,0.3485793974778062,0.902327963789503,6.000129577219923
1,24,female,42,75,125,right,change,valid,clock,1,0.4974411706589308,0,f,1,change,1.2040443487658194,0.42568856301819413,0.8527675641271344,0.5019962589394709,0.40040579479500593,0.03487423312071769,0.34855502156642615,0.902284343736028,6.265410066995173
1,24,female,43,135,85,left,change,valid,anti,2,0.6974484192869568,1,j,0,same,1.290907592199801,0.4265820713151159,0.8226103908091318,0.5019552047706384,0.3446519889457704,0.03484408396616345,0.3485142881345382,0.902407826975832,6.468376743840054
1,24,female,44,135,135,left,same,valid,clock,1,0.9211192264374404,0,f,0,change,0.867737902492081,0.42627610282414086,0.8749544555321336,0.5020026736528962,0.44919867395037727,0.03486300737131387,0.34853000418297597,0.902422580818893,6.421365230711672
1,24,female,46,75,25,left,change,valid,anti,3,0.5357334840373369,1,f,1,change,1.0167789669230842,0.42717893601602946,1.200280194700099,0.5019940137899539,0.3445788612079923,0.034848253530071815,0.34854155066750536,0.9023302089390199,6.42270398148321
1,24,female,47,135,135,left,same,valid,anti,2,0.5774191810214688,1,j,1,same,1.64472203762125,0.42686514771293643,1.040119223869624,0.5020632926989492,0.40034100618504453,0.034773842849972425,0.3486117917836964,0.9023382273317111,6.967487664505825
1,24,female,48,75,125,left,change,valid,clock,3,0.4654468233056832,1,f,1,change,1.5800405538211635,0.4265581829919527,0.7792196628943202,0.5019818258333544,0.34454774984624237,0.03484023513919965,0.34864835565167596,0.9023366236542643,6.48371496603977
1,24,female,49,135,85,right,change,valid,anti,3,0.47337091928056907,1,f,1,change,1.1710117799793807,0.4262571418156887,0.7548706922007113,0.5019856746621372,0.4003698723990965,0.03478923816328461,0.34856753025815124,0.9024431079033093,6.109360606986229
1,24,female,50,165,215,left,change,valid,clock,3,0.5373948949127225,1,f,1,change,1.1605519476361223,0.4259611601704515,0.952528551892101,0.5020527084216155,0.4979812895635405,0.034900854183433694,0.34850915636161517,0.9023574714738061,6.452617074941372
1,24,female,51,15,325,right,change,valid,anti,3,0.6175085764716641,1,f,1,change,1.1040174711142754,0.4256694053600947,0.9916162897807226,0.5020296154507378,0.44916852479582303,0.03484472543641459,0.3485563045087474,0.9023298882038944,6.468277957246755
1,24,female,52,15,15,right,same,valid,clock,4,0.4733763717867987,1,j,1,same,0.827806629735278,0.42538107158675076,0.913796830618594,0.5019491107923386,0.4491832786370651,0.03485659265788854,0.34853000418297597,0.9023898657796963,5.969065684104862
1,24,female,53,45,45,right,same,valid,clock,4,1.2971000361794722,1,j,1,same,0.7095680588299729,0.4250953757806202,0.9764307377681689,0.5019471863797662,0.4980213815251773,0.03478442712730612,0.3486319981311681,0.9023869791581092,6.795894711453002
1,24,female,55,15,325,left,change,valid,anti,3,0.408369661994584,1,f,1,change,1.2306849759715988,0.4248115536440257,0.9665636249810632,0.5020001077664347,0.4979145765373687,0.034882572250353405,0.34857586938596796,0.9023135306852055,6.42264240023178
1,24,female,56,105,155,right,change,valid,clock,3,3.145452673523323,1,j,0,same,1.1137736093551212,0.4245092185457581,0.8724873565988673,0.5020305776579335,0.4003175924808602,0.03486204516593716,0.3486095466341794,0.902323473490469,8.839377811249506
1,24,female,57,45,95,right,change,valid,clock,3,0.5774012198216951,1,f,1,change,1.1709357656218344,0.42420712286683593,1.361927775455115,0.502025766621955,0.4003910409537639,0.03482676423845987,0.3485489275881264,0.9023260393751116,6.826792463481979
1,24,female,58,45,45,left,same,valid,clock,2,0.4733705985436245,1,f,0,change,1.173745731008239,0.4239043742713532,0.8769250556160841,0.50195103520673,0.4979909116336785,0.0348264435033343,0.34853289080456307,0.9023622825097846,6.327722596983222
1,24,female,1,15,15,left,same,valid,anti,3,0.4318417413142015,1,j,1,same,1.033398528208636,0.4236000841808021,0.7968174680354423,0.5019933723178838,0.4491717321525357,0.03486781840547337,0.34851428813271923,0.9023808851779904,6.031782661799298
1,24,female,2,165,165,left,same,valid,clock,3,0.3854312868679699,1,j,1,same,1.1583241175285366,0.42329336313873983,0.8664751660762704,0.5019645061056508,0.4491726943597314,0.03475973047898151,0.3486554118371714,0.9023080781789758,6.17192844258534
1,24,female,3,15,325,left,change,valid,anti,3,0.6574366418717545,1,f,1,change,0.8941748625329637,0.4229833162235448,0.903947679027624,0.501914792073876,0.49797391264291946,0.03485627192094398,0.3486143576683389,0.9023276430543774,6.2653032620091835
1,24,female,4,105,105,right,same,valid,anti,3,0.5694610870632459,1,j,1,same,1.2887333249509538,0.4226690384726636,0.9278229231076693,0.5019693171416293,0.4003734004909347,0.03487904415669618,0.3485460409683583,0.9023703009006567,6.499352113904024
1,24,female,5,165,165,right,same,valid,anti,2,0.8974402725998516,1,j,1,same,0.8127506549426471,0.42234961028243323,0.8179876273006812,0.5020100505735172,0.4491233010630822,0.034848253530071815,0.34859383058574167,0.9022744009289454,6.28106870414922
1,24,female,7,135,135,left,same,valid,clock,3,0.36028208062634803,1,j,1,same,0.8885889297434915,0.42202409274786656,0.7024993649429234,0.5019972211448476,0.40031213997281156,0.03486878061448806,0.34858356704171456,0.9023632447151613,5.673874987491217
1,24,female,9,135,185,left,change,valid,clock,2,0.46416323907033075,1,f,1,change,1.0846302815534727,0.42169152290671497,1.0964545235274272,0.5020206348508509,0.44914190373310703,0.03484472543641459,0.34851236371832783,0.9023818473870051,6.422682492191598
1,24,female,10,135,85,left,change,valid,anti,3,0.4894288723698992,1,j,0,same,1.1379025553651445,0.4213509088516831,0.9919748722841177,0.5019394887203816,0.2958263947512023,0.034784747864250676,0.3486326396032382,0.9023895450427517,6.2185425641928305
1,24,female,11,15,15,left,same,valid,clock,3,0.7373787298347452,1,j,1,same,0.8919598618540476,0.4210012246738668,0.8449810637648625,0.5020437278217287,0.3444967528721463,0.03485563045069284,0.3485460409683583,0.9023504152883106,6.125138237082865
1,24,female,12,15,15,right,same,valid,anti,3,0.4654554831686255,1,j,1,same,0.7751803176051908,0.4206414051993085,0.7588385134276905,0.5019706000839506,0.4003743626981304,0.03485114015165891,0.34857202055900416,0.90227472166589,5.703614562939038
1,24,female,14,135,85,right,change,valid,anti,1,0.6077716823729133,0,f,1,change,1.2197796417513018,0.4202703404790139,1.1926123665434716,0.5019394887203816,0.4491204144414951,0.03479469066951424,0.3486400165256782,0.9023430383676896,6.797148467268926
1,24,female,15,165,115,left,change,valid,anti,3,0.6653511157746834,1,f,1,change,1.5827312055298535,0.42126762892425335,1.002746780455709,0.5019994662961835,0.44913099872064777,0.03481072745489655,0.3485591911303345,0.9023244356976647,7.014235853632272
1,24,female,16,75,75,right,same,valid,clock,3,0.4414602839406143,1,j,1,same,0.9004006630257209,0.42091958763941084,0.720109358042464,0.5019965796745964,0.49794376348654623,0.03483574483834673,0.34857971821475076,0.9022974938998232,5.8752976427222166
1,24,female,18,75,75,left,same,valid,anti,3,0.47199945346619643,1,j,1,same,0.7988284808161552,0.42056125338509787,1.0692587028424896,0.5019930515809392,0.2957407583216991,0.034853385301175877,0.3485886988146376,0.9022853059432236,5.954750288021387
1,24,female,19,75,75,right,same,valid,anti,3,0.48950456599413883,1,j,1,same,1.0593428382289858,0.42019152816235167,0.9671040646189795,0.5020052395375387,0.3445987468221574,0.034859800014601205,0.34860345265587966,0.9022744009289454,6.171568897874749
1,24,female,20,135,135,left,same,valid,anti,3,0.5533980022028118,1,j,1,same,0.8519496881162922,0.4198069096590676,0.8840091448146268,0.5019356398934178,0.498020098581037,0.03482965086004697,0.3485707376148639,0.9022856266801682,6.0939559924972855
1,24,female,21,165,215,right,change,valid,clock,3,0.4334483063867083,1,f,1,change,0.8479995073503233,0.4194280498224713,0.8296739529268962,0.5019603365399234,0.4003762871125218,0.03484536690848472,0.34859671720732877,0.902335340710124,5.828564207437012
1,24,female,22,45,45,left,same,valid,clock,3,0.3934567353207967,1,j,1,same,0.7718087440243835,0.4190634744270355,0.9916631171927293,0.5019141506036249,0.4004776395904628,0.0348408766076318,0.3484953647275688,0.9023346992398729,5.875536911546078
1,24,female,23,45,45,right,same,valid,anti,4,0.4974267375546333,1,j,1,same,0.5208115767636627,0.41871195765303676,0.8652220517342357,0.5019712415542017,0.3445503157308849,0.03489315652586811,0.34858837807769305,0.9023132099482609,5.532327912471374
1,24,female,24,45,355,left,change,valid,anti,2,1.3453730027795245,1,f,1,change,1.226822676782831,0.41837234804294654,0.8436201822296425,0.5020078054240003,0.49794568790093763,0.034871667236075155,0.3486108295765007,0.9023199453986308,7.232548450334434
1,24,female,25,105,105,right,same,valid,clock,3,0.4734260858185735,1,j,1,same,0.8678536880761385,0.41804356132624854,1.1252386273536104,0.5020196726454742,0.449161147875202,0.03486140369386703,0.3485171747543063,0.9023433591028152,6.234393963497496
1,24,female,27,45,95,left,change,valid,clock,2,0.783417772348912,1,f,1,change,0.8364414759998908,0.41772457383187067,1.0742275401626102,0.5019654683128465,0.29580715061092633,0.03487968562694732,0.3485707376148639,0.9023648483944271,6.313470065097135
1,24,female,28,15,15,right,same,valid,clock,4,0.5853801615994598,1,j,1,same,0.8947130570213631,0.4174144164255703,0.8566574465839949,0.501999145559239,0.2958433937437803,0.03479372846231854,0.3486259041546873,0.9023401517461025,5.937768295403657
1,24,female,29,75,75,left,same,valid,clock,4,0.4895154710065981,1,j,1,same,0.8084428538804787,0.4171121689158007,0.9587184299853106,0.5020026736528962,0.40034838310748455,0.0348360655734723,0.3485925476416014,0.902296852429572,5.968735326343449
1,24,female,30,165,115,right,change,valid,anti,2,0.4813784065336222,1,f,1,change,2.1038089929152193,0.41681695487705644,0.8390205116884317,0.5019952967322752,0.4979537062918098,0.034888024754764047,0.34857202055718517,0.9022833815288323,7.2325718640386185
1,24,female,31,75,125,right,change,valid,clock,3,0.3934894503618125,1,j,0,same,1.162564564094282,0.4165279368445209,0.6299030865029636,0.5020725940339616,0.49791585948332795,0.03486974282168376,0.34863424328250403,0.902301342726787,6.000333244383
1,24,female,34,105,155,right,change,valid,clock,3,0.4961492472975806,1,f,1,change,1.1395357415021863,0.41624431183809746,0.9887601384543814,0.5019988248241134,0.29580233957494784,0.034778974621076486,0.348643865352642,0.902289475507132,6.235422883593856
1,24,female,35,105,105,left,same,valid,clock,1,0.6174845212972286,0,f,0,change,0.38126845833903644,0.41596530717765595,0.9770019680345285,0.5020100505735172,0.40038558844753425,0.03489668461952533,0.3485800389498763,0.9023148136275267,5.688092879925534
1,24,female,36,45,355,right,change,valid,anti,3,0.48937691318860743,1,f,1,change,1.28061165579129,0.41679115963103525,0.7117885120169376,0.5019641853687062,0.34451727995656256,0.03489059064122557,0.34858741587231634,0.9022596470877033,6.140708030452515
1,24,female,38,15,325,right,change,valid,anti,2,0.4562086732057651,1,f,1,change,1.6883533173040632,0.41650657254500556,1.148182454988273,0.5019196031080355,0.40042471820197534,0.03483991440225509,0.34851781622637645,0.9023796022374881,7.015471648246603
1,24,female,39,135,135,right,same,valid,anti,3,0.4494279999689752,1,j,1,same,0.7717638410285872,0.4162272504826673,0.5232045857501362,0.5019856746621372,0.3445981053500873,0.03485017794446321,0.3485633606942429,0.9023683764862653,5.407388852254371
1,24,female,40,105,155,left,change,valid,clock,1,0.4255405679341493,0,f,1,change,1.009474853039137,0.4159524414840522,0.8397296583025309,0.5019875990747096,0.4492281816328614,0.0348360655734723,0.3485527764169092,0.90229909757727,6.031376610413645
1,24,female,41,45,95,right,change,valid,clock,3,0.8014543439167028,1,f,1,change,0.8145624908574973,0.4167659626166845,0.876745443629261,0.5019750903848035,0.4979431220144761,0.034848574265197385,0.34858741587049735,0.902291720658468,6.296640742670206
1,24,female,43,45,45,left,same,valid,anti,3,0.5278174064533232,1,j,1,same,0.8282870917992113,0.4164856894396607,1.0768694400467211,0.5019596950696723,0.34464012172611547,0.03481297260259453,0.3485338530099398,0.9023699801655312,6.095135016896165
1,24,female,44,15,65,left,change,valid,clock,2,0.8332931344593817,1,f,1,change,1.113182814211541,0.4162105578019208,0.8350177302691009,0.5020094091014471,0.4003185546880559,0.034895080940259504,0.3485486068530008,0.9023542641170934,6.499229592871416
1,24,female,45,15,65,right,change,valid,clock,3,0.4814508927993302,1,j,0,same,0.930968698761717,0.4159398356417175,1.1201796633031336,0.5019186409008398,0.40039039948351274,0.034859800014601205,0.34860666001259233,0.9023295674687688,6.249736675998065
1,24,female,46,105,105,left,same,valid,anti,2,0.5454315691149532,1,f,0,change,1.0877006843220443,0.41567281540958256,1.003263806389441,0.5019497522625898,0.44919514585672005,0.03483927293018496,0.34854636170348385,0.9023446420469554,6.390335656315074
1,24,female,47,105,55,left,change,valid,anti,3,0.4574220163231075,1,j,0,same,0.8130239217498456,0.4154088106542143,1.0190080799748102,0.5020264080940251,0.29583537535108917,0.03485017794446321,0.348564002164494,0.9023670935439441,5.890962053119438
1,24,female,48,45,45,right,same,valid,clock,3,0.409396978413497,1,j,1,same,1.434510582996154,0.41514715278520004,0.8589808559281664,0.5019202445801056,0.4980233059377497,0.034824839825887466,0.3485582289231388,0.9022891547720064,6.515234303837133
1,24,female,49,135,185,right,change,valid,clock,3,0.6813936735525203,1,f,1,change,0.8713125017638959,0.4148871879881063,0.789795280823455,0.5019308288574393,0.4491733358318015,0.034847932794946246,0.34853673963152687,0.902369338693461,6.109275612028796
1,24,female,50,165,165,right,same,valid,clock,3,0.46542822063565836,1,j,1,same,0.8870474740142527,0.4146103034989457,0.7721583459278918,0.501987278339584,0.29576609644027485,0.03488417592780024,0.34860184897661384,0.9023128892113164,5.734902971038537
1,24,female,51,165,215,left,change,valid,clock,2,0.473430896854552,1,f,1,change,1.31026944363839,0.41433372320486417,0.8789963667059055,0.5019372435726837,0.44916756258862733,0.03489251505561697,0.3485126844552724,0.9023494530811149,6.421478129674142
1,24,female,52,75,25,right,change,valid,anti,2,0.5214302759086422,1,f,1,change,0.9141150004234078,0.4140566809333028,0.7603895912288863,0.5019539218283171,0.4003640991559223,0.03481810437551758,0.34866535464425397,0.9023468871964724,5.906408363245646
1,24,female,53,105,55,right,change,valid,anti,2,0.42536095594550716,1,f,1,change,0.9277796237911389,0.4137784134527348,0.8662544999224338,0.5019301873871882,0.40036666504238383,0.03489283579074254,0.3485620777519216,0.9023690179583355,5.937447238979075
1,24,female,54,75,25,left,change,valid,anti,2,0.4174596322063735,1,f,1,change,0.9647982957394561,0.4134981567930018,1.02009922279467,0.502018389701334,0.4979995714966208,0.03490887257430586,0.34856624731582997,0.9023504152883106,6.218480020732386
1,24,female,55,165,165,left,same,valid,anti,2,0.7294976124430832,1,f,0,change,1.024246014538221,0.4132151425972811,0.9212173715586687,0.5019847124549415,0.44914543182494526,0.03481682143319631,0.3486230175331002,0.902272476516373,6.436885951521617
1,24,female,57,135,135,right,same,valid,clock,1,0.41602818881801795,0,f,0,change,0.900285198176789,0.412928594478739,0.967582923005466,0.5019433375491644,0.3445400521886768,0.034894760205133935,0.34856624731582997,0.9023709423727269,5.954789738509135
1,24,female,58,75,125,left,change,valid,clock,2,0.7294405214906874,1,j,0,same,0.9760160265213926,0.41368505794096333,1.0175715048153506,0.5020860649328824,0.4979944397273357,0.03480110538293957,0.3485899817569589,0.902359716625142,6.530397725086004
1,24,female,1,135,185,right,change,valid,clock,1,0.8323569069798396,0,f,1,change,2.729961396253202,0.4134075176505591,0.987593302012101,0.5019657890479721,0.4979219534616277,0.0348617244289926,0.34863296034018276,0.9023446420451364,8.362283471335104
1,24,female,2,15,325,right,change,valid,anti,2,0.9212555391040951,1,f,1,change,1.2014932170823158,0.41413707983420905,0.7901333362424339,0.5020174274941382,0.2957891894111526,0.03485114014983992,0.34857137908693403,0.9024094306569168,6.515051163756652
1,24,female,3,45,95,left,change,valid,clock,3,0.8414731775155815,1,f,1,change,0.702168365711259,0.41386630251609496,1.1198810583773593,0.5020068432168046,0.3446208775840205,0.03481168966027326,0.34850755268416833,0.9024527299734473,6.312217912960477
1,24,female,5,15,15,right,same,valid,anti,3,0.47170309368812013,1,j,1,same,0.856053822015383,0.4135937928771277,0.9247275029574666,0.5020084468960704,0.44908481277889223,0.03487487459096883,0.3485755486508424,0.9023600373584486,6.017102589235947
1,24,female,9,105,105,left,same,valid,clock,3,0.4157533183297346,1,j,1,same,0.9006264609506616,0.4133188178814994,1.0793631600427034,0.501972524498342,0.4980242681449454,0.03484376323103788,0.34850755268416833,0.9023170587770437,6.219879390549977
1,24,female,10,45,95,right,change,valid,clock,3,0.7693887932400685,1,f,1,change,1.731483607840346,0.413040637846559,0.9047036530500918,0.5019834295108012,0.29579271750480984,0.03485017794446321,0.34855694598081755,0.9023622825097846,7.013955851372884
1,24,female,11,75,75,left,same,valid,anti,4,0.4894943024519307,1,j,1,same,0.8397572415706236,0.4127585030302009,0.6951054450655647,0.5020228800021869,0.44920348498635576,0.03485851707227994,0.3485194199038233,0.9024065440353297,5.7817015156688285
1,24,female,13,135,135,right,same,valid,anti,2,0.7674281359613815,1,f,0,change,1.3677099984852248,0.4124716501806589,1.10924225551571,0.5019930515827582,0.29576705864747055,0.03485755486508424,0.3486108295765007,0.9022740801956388,6.859459714314653
1,24,female,14,105,55,right,change,valid,anti,3,0.489440098119303,1,f,1,change,0.7422898347303999,0.41217929902455497,1.0118207138802973,0.5020033151231473,0.4491412622610369,0.0348646110505797,0.34860441486307536,0.9022891547701875,5.999989415722666
1,24,female,15,165,115,right,change,valid,anti,3,0.5614289031600492,1,j,0,same,0.8528657092483627,0.41188064866878227,0.8162299957148207,0.5019577706552809,0.3445833515088452,0.034819066582713276,0.34860377339100523,0.9023334162975516,5.891271883794616
1,24,female,16,165,165,left,same,valid,clock,3,0.2654517626360757,1,j,1,same,1.1771185875313677,0.4115748738913064,0.9468322860248009,0.5019795806838374,0.34456314515955455,0.034883534457549104,0.34858741587049735,0.90236196177284,6.047016644899486
1,24,female,17,75,75,right,same,valid,anti,3,0.3374373603201093,1,j,1,same,0.8614960652157606,0.4112611212952473,0.7224667653663346,0.5020934418535035,0.2957529462782986,0.03482419835381734,0.348581001157072,0.9022907584494533,5.53219833525327
1,24,female,18,45,45,left,same,valid,anti,3,0.3374370395849837,1,j,1,same,0.8235838236305426,0.4109385052996479,1.0283767695000279,0.501999145559239,0.49797776146988326,0.03479020036866132,0.3486554118371714,0.9023372651263344,6.000390014600271
1,24,female,19,15,65,left,change,valid,clock,3,0.3933512132789474,1,j,0,same,0.9317676513674087,0.410606103939141,0.9081778620529803,0.5019410923996475,0.29579464191920124,0.03484697058593156,0.3485649643716897,0.902320586868882,5.8441314349202
