subject,age,gender,ntrial,memory_ori,test_ori,cue,type,trial_type,which_change,pas,pas_rt,vis,test_key,test_acc,test,test_rt,contrast,fix_dur,cue_dur,jitter_dur,target_dur,mask_dur,retention_dur,trial_dur
20,21,female,1,45,355,left,change,valid,anti,1,1.6563071913660679,0,j,1,change,0.656772901083059,0.5,0,0,0,0.38752885828671424,0,0,5.377371447119003
20,21,female,2,135,85,right,change,valid,anti,1,1.4653832066105679,0,j,1,change,0.968344248003632,0.6571452603159259,0,0,0,0.38747689893716597,0,0,5.208639556715752
20,21,female,3,105,135,left,change,catch,clock,2,1.5772757392815038,1,f,0,same,1.086822788472091,0,0,0,0,0.38748363440936373,0,0,6.954122461128463
20,21,female,4,135,135,right,same,valid,clock,1,2.0403121153167376,0,j,0,change,1.6935854580542582,0.7719982136857017,0,0,0,0.3874255810624163,0,0,6.790165378267375
20,21,female,5,75,125,right,change,valid,clock,1,1.4894875332838637,0,j,1,change,1.0955256586166797,0.8640190595137247,0,0,0,0.3875153873441377,0,0,5.418786255276245
20,21,female,6,165,215,right,change,valid,clock,2,1.3051392927500274,1,f,0,same,0.8954638847244496,0.9431646450436015,0,0,0,0.387423977378603,0,0,5.644346598362972
20,21,female,7,105,155,right,change,valid,clock,1,2.385415844779345,0,j,1,change,0.8411554604463163,0.9132560203011124,0,0,0,0.3874509192637561,0,0,6.171918409710997
20,21,female,8,15,15,left,same,valid,clock,2,1.4494983998447424,1,f,1,same,0.7069563304130497,0.9675778865370614,0,0,0,0.38748203072555043,0,0,5.160859086888195
20,21,female,9,135,185,right,change,valid,clock,2,1.3054661234673404,1,j,1,change,0.8643264432676006,0.9478751000060446,0,0,0,0.3874791440948684,0,0,5.275859237634904
20,21,female,10,75,75,right,same,valid,anti,1,3.3293244450769635,0,j,0,change,1.032139422968612,0.9319071494344915,0,0,0,0.38749004914370744,0,0,7.378078030112192
20,21,female,11,45,95,left,change,valid,clock,2,1.5294429893692723,1,j,1,change,1.2953279565026605,0.966925139352107,0,0,0,0.3874255810624163,0,0,6.262018806717606
20,21,female,12,165,165,left,change,catch,clock,1,1.7453757783478068,0,f,0,same,0.8798013485047704,0,0,0,0,0.38739928065206186,0,0,7.515883844555901
20,21,female,13,75,75,left,same,valid,anti,2,1.5923417052026707,1,f,1,same,0.7269860178030285,0.9545092712668177,0,0,0,0.3875269338659564,0,0,5.836519531903832
20,21,female,14,15,325,right,change,valid,anti,1,1.82542332435969,0,j,1,change,1.1817858748827348,0.943196527753907,0,0,0,0.3875080103989603,0,0,5.7848937495473365
20,21,female,15,75,25,left,change,valid,anti,1,1.4334846569172441,0,j,1,change,1.106487156739604,0.9684190919958211,0,0,0,0.38747048420373176,0,0,5.860144357183344
20,21,female,16,165,165,left,same,valid,anti,2,1.0974154393679783,1,f,1,same,0.8154994095229995,0.993207870587843,0,0,0,0.38744450452941237,0,0,5.312896631045078
20,21,female,17,135,135,left,same,valid,anti,3,2.3214792249209495,1,f,1,same,1.262667657100792,0.984176339935543,0,0,0,0.3875339900741892,0,0,6.807654189366076
20,21,female,18,105,55,right,change,valid,anti,2,1.441445983767153,1,j,1,change,0.9375718049332136,0.9759941500924516,0,0,0,0.3873983184412282,0,0,5.092781755982287
20,21,female,19,105,105,left,same,valid,anti,2,1.2974422529568983,1,f,1,same,0.9734490936298243,0.9689108182528517,0,0,0,0.38751731176489557,0,0,5.237509389568004
20,21,female,20,135,185,left,change,valid,clock,2,1.593496678129668,1,j,1,change,1.047154712488009,0.9622964735451445,0,0,0,0.3875519513303516,0,0,5.330359783207314
20,21,female,21,165,45,right,change,catch,anti,2,2.041504293702019,1,j,1,change,1.0875851796536153,0,0,0,0,0.38751667029100645,0,0,7.998391505351719
20,21,female,22,45,45,left,same,valid,anti,1,1.7843978905793847,0,j,0,change,1.1190189818407816,0.9559940658588616,0,0,0,0.3875144251342135,0,0,6.237756356841601
20,21,female,23,15,75,left,change,catch,anti,1,1.2815054868433435,0,j,1,change,1.0010991647368428,0,0,0,0,0.3874207700118859,0,0,7.063202453507074
20,21,female,24,165,165,left,same,valid,clock,2,1.9202613234492674,1,j,0,change,0.8880696203959815,0.9720422647118467,0,0,0,0.3874935772473691,0,0,5.951849720734572
20,21,female,25,105,155,left,change,valid,clock,1,2.433452262508581,0,j,1,change,1.374651279002137,0.9663982709535108,0,0,0,0.38749069061668706,0,0,6.639031670185432
20,21,female,26,165,115,left,change,valid,anti,2,1.2292780023999512,1,j,1,change,0.995593398211895,0.9808709765316599,0,0,0,0.3874493155799428,0,0,5.34388236403538
20,21,female,27,105,105,left,same,valid,clock,1,1.1933583764557625,0,j,0,change,1.1150142631622657,0.9757911367120442,0,0,0,0.3874060161233501,0,0,5.726195401789482
20,21,female,28,135,85,left,change,valid,anti,2,1.2253996539893706,1,j,1,change,0.9091814734774744,0.9890795782322485,0,0,0,0.3874287884300429,0,0,5.641088554766611
20,21,female,29,45,355,right,change,valid,anti,1,1.2494667752043824,0,j,1,change,1.8794183888630869,0.9844960629065802,0,0,0,0.3874740123073934,0,0,6.21568806686264
20,21,female,30,135,135,right,same,valid,anti,2,1.3053958821255947,1,f,1,same,0.9591403871036164,0.9960269396638664,0,0,0,0.3874435423185787,0,0,5.718107383936513
20,21,female,31,75,75,right,same,valid,clock,1,2.0094575636458103,0,j,0,change,0.9317379247431745,0.9918634090635738,0,0,0,0.38747786114799965,0,0,5.630547542483328
20,21,female,32,165,215,left,change,valid,clock,3,1.3854238631965927,1,j,1,change,0.8000386167013858,1,0,0,0,0.3874149967505218,0,0,5.526463986719136
20,21,female,33,165,115,right,change,valid,anti,2,1.2014454320997174,1,j,1,change,0.8440295821892505,0.9987157215818758,0,0,0,0.3874605413648169,0,0,4.99524379518698
20,21,female,34,45,45,left,same,valid,clock,2,1.273495087275478,1,j,0,change,1.4017204959109222,0.9949649070495772,0,0,0,0.3873996013890064,0,0,5.641086630346763
20,21,female,35,135,75,right,same,catch,clock,2,1.3213499680223322,1,f,1,same,1.2857658326875026,0,0,0,0,0.3874692012559535,0,0,7.453251660935166
20,21,female,36,15,15,right,same,valid,clock,2,2.120526765158502,1,j,0,change,0.9635928542420515,0.9912211298293266,0,0,0,0.3875339900741892,0,0,6.134088796601645
20,21,female,37,45,45,right,same,valid,anti,2,1.2734745601255781,1,f,1,same,0.8760968393962685,0.9876881947301208,0,0,0,0.3874627865216098,0,0,5.306502423806705
20,21,female,38,15,65,right,change,valid,clock,2,2.401152791916502,1,f,0,same,1.149132310953064,0.9844288262550385,0,0,0,0.3874345616904975,0,0,6.625506523463628
20,21,female,39,105,55,left,change,valid,anti,1,1.5054085832989585,0,j,1,change,1.296688842403455,0.9811308614077401,0,0,0,0.3875115385035315,0,0,5.953416840346108
20,21,female,40,165,165,right,same,valid,clock,3,1.513460678640513,1,j,0,change,0.7508157938464137,0.989490025745476,0,0,0,0.38746727683610516,0,0,5.568986619505267
20,21,female,41,165,165,right,same,valid,anti,3,1.92946775024393,1,f,1,same,0.7963998586192247,0.9864729253153325,0,0,0,0.38746182431168563,0,0,5.494820422718476
20,21,female,42,135,135,left,same,valid,clock,2,1.4014546051703292,1,j,0,change,0.9868693594435172,0.9836449464222433,0,0,0,0.3875048030322432,0,0,5.274216103421168
20,21,female,43,15,15,left,same,valid,anti,1,1.2414092273384085,0,f,1,same,1.6355596951971165,0.9807437219588305,0,0,0,0.38740665759632975,0,0,5.639470117280325
20,21,female,44,75,125,left,change,valid,clock,3,2.5694738185820825,1,j,1,change,0.9211956295130221,0.9881679329379542,0,0,0,0.38749806756095495,0,0,6.823461698583742
20,21,female,45,105,215,right,same,catch,clock,1,1.5775284798173743,0,j,0,change,1.0100451533153318,0,0,0,0,0.3875035200853745,0,0,7.390992173382983
20,21,female,46,75,25,right,change,valid,anti,2,1.3523126079680878,1,j,1,change,0.7126779527498002,0.985534344239757,0,0,0,0.3874323165337046,0,0,5.105223774801743
20,21,female,47,105,105,right,change,catch,anti,1,1.337440687761955,0,j,1,change,1.2530927038169466,0,0,0,0,0.3875323863894664,0,0,7.250441494094957
20,21,female,48,15,185,right,same,catch,anti,1,2.344174555186328,0,j,0,change,1.1891871954212547,0,0,0,0,0.3875355937580025,0,0,7.904746005385277
20,21,female,49,15,15,right,same,valid,anti,2,1.2242417944316912,1,j,0,change,0.8923312491860997,0.9830336643911091,0,0,0,0.3875015956655261,0,0,5.444210092814501
20,21,female,50,105,105,right,same,valid,anti,2,1.4094294029609955,1,j,0,change,0.9116508254801374,0.9804404295288947,0,0,0,0.3875525928033312,0,0,5.086332382028559
20,21,female,51,15,45,left,same,catch,clock,3,1.7133251994500824,1,f,1,same,1.013708287387999,0,0,0,0,0.3874733708344138,0,0,7.281745397909617
20,21,female,52,15,325,left,change,valid,anti,1,1.9604948582700672,0,j,1,change,1.1598766703164074,0.9779497279840188,0,0,0,0.38747465378037305,0,0,6.113084390321092
20,21,female,53,45,95,right,change,valid,clock,1,1.1853794090875454,0,j,1,change,0.9529524135759857,0.9846320364977921,0,0,0,0.38743263727064914,0,0,5.484457419313912
20,21,female,54,75,75,left,same,valid,clock,2,1.5774242403831522,1,f,1,same,0.775201085885783,0.9908607048496448,0,0,0,0.3874377690581241,0,0,5.287811491482898
20,21,female,55,45,45,right,same,valid,clock,2,1.3853988457335618,1,f,1,same,1.168507053963367,0.9884978484565274,0,0,0,0.38742461885249213,0,0,5.3180989806351135
20,21,female,56,105,105,right,same,valid,clock,2,1.2734565988685063,1,j,0,change,0.777154693245393,0.9862844249606285,0,0,0,0.3874701634658777,0,0,5.485338162345215
20,21,female,57,165,95,left,change,catch,anti,1,2.0254780420436873,0,f,0,same,1.3451428593416495,0,0,0,0,0.38745508884039737,0,0,7.84252244034451
20,21,female,58,15,65,left,change,valid,clock,3,1.9674157152021507,1,j,1,change,0.990533134989164,0.984178752765137,0,0,0,0.3874679183090848,0,0,6.2322647027313
20,21,female,1,165,165,right,same,valid,clock,1,1.4467926648812863,0,j,0,change,1.2951916433958104,0.9820002651528675,0,0,0,0.3874733708344138,0,0,5.777422508404925
20,21,female,2,75,25,left,change,valid,anti,2,1.1614277530916297,1,f,0,same,0.8070945037925412,0.9875869931075811,0,0,0,0.3874307128498913,0,0,5.257359785131484
20,21,female,3,105,105,left,same,valid,anti,2,1.1694827350620471,1,j,0,change,0.7675511943907622,0.985589562029602,0,0,0,0.3875641393251499,0,0,4.935204767943105
20,21,female,4,45,355,right,change,valid,anti,2,1.0654351018110901,1,f,0,same,0.9073324262899405,0.9836729843108519,0,0,0,0.3875266131299213,0,0,4.979801284357563
20,21,female,5,75,25,right,change,valid,anti,1,1.1854534992708068,0,j,1,change,0.9371134721604903,0.981675115702823,0,0,0,0.3874554095773419,0,0,4.978835546095979
20,21,female,6,105,215,right,same,catch,clock,2,1.601435232671065,1,f,1,same,0.7654619154000102,0,0,0,0,0.38740088433587516,0,0,6.92280669005504
20,21,female,7,135,135,right,same,valid,anti,2,2.664304761465246,1,j,0,change,1.184083312004077,0.9868274498239211,0,0,0,0.38750287861239485,0,0,7.201370700444386
20,21,female,8,45,95,left,change,valid,clock,2,1.2014903352410329,1,j,1,change,0.8940574542102695,0.9850061660647692,0,0,0,0.3875003127177479,0,0,5.240124356040724
20,21,female,9,105,105,right,same,valid,anti,2,1.7294050141408661,1,j,0,change,0.8850704113319807,0.9832458963644932,0,0,0,0.3874175626451688,0,0,5.397503770259391
20,21,female,10,135,75,right,same,catch,clock,2,1.0334643863570818,1,j,0,change,1.0966049376784213,0,0,0,0,0.3874425801086545,0,0,6.408131702194623
20,21,female,11,15,185,right,same,catch,anti,2,1.328266655376865,1,j,0,change,0.8065335352694092,0,0,0,0,0.3875169910270415,0,0,6.735851180727877
20,21,female,12,45,355,left,change,valid,anti,2,1.0325092324073921,1,j,1,change,0.7045501635438995,0.9813992279952392,0,0,0,0.38746823904693883,0,0,5.0206419737878605
20,21,female,13,105,155,right,change,valid,clock,1,1.0734477465357486,0,j,1,change,0.9180495230320957,0.9795654104148884,0,0,0,0.387418524855093,0,0,5.268176310257331
20,21,female,14,165,165,left,same,valid,clock,1,1.0894358305267815,0,f,1,same,0.8722159250901313,0.9843962040022718,0,0,0,0.387461182838706,0,0,5.161562462513757
20,21,female,15,45,45,right,same,valid,anti,2,1.1774668342186487,1,f,1,same,1.1147243171690207,0.9889244153355495,0,0,0,0.3874207700118859,0,0,5.292318483864619
20,21,female,16,75,75,right,same,valid,clock,1,1.7214109721462592,0,j,0,change,1.3955892927806417,0.9872392693590449,0,0,0,0.38749967124476825,0,0,6.5233329548646
20,21,female,17,75,75,right,same,valid,anti,2,2.4414523984996777,1,j,0,change,0.839933774281235,0.9919845405221557,0,0,0,0.3874095442261023,0,0,6.689899872410933
20,21,female,18,15,75,left,change,catch,anti,2,1.5454451857731328,1,j,1,change,0.6616009509198193,0,0,0,0,0.38742301516867883,0,0,7.078936514015368
20,21,female,19,165,215,right,change,valid,clock,2,1.6082819994207966,1,j,1,change,0.8558031856864545,0.9902898758814093,0,0,0,0.38747529525426216,0,0,5.567804063221047
20,21,female,20,135,85,right,change,valid,anti,1,2.7294354841305903,0,f,0,same,1.280033305301913,0.9886346766493188,0,0,0,0.3874961431411066,0,0,6.909499965039686
20,21,female,21,165,115,left,change,valid,anti,2,1.145510231179287,1,j,1,change,0.8923091183532961,0.9931110761238908,0,0,0,0.38748908693378326,0,0,5.340777953327233
20,21,female,22,15,65,right,change,valid,clock,1,1.1934754453595815,0,j,1,change,0.7321110698430857,0.9915156984999367,0,0,0,0.3874031294917586,0,0,4.948995805405502
20,21,female,23,105,135,left,change,catch,clock,1,0.7294916130558704,0,j,1,change,0.8091901975167275,0,0,0,0,0.3874547681034528,0,0,5.908748158169146
20,21,female,24,165,165,left,change,catch,clock,2,0.9364011159068468,1,j,1,change,1.4643388878521364,0,0,0,0,0.387487803986005,0,0,7.26613161367095
20,21,female,25,135,85,left,change,valid,anti,1,1.1125506844200572,0,j,1,change,1.011234445069931,0.9956616850467853,0,0,0,0.3874557303142865,0,0,5.664598235563062
20,21,female,26,105,55,left,change,valid,anti,2,2.0254911922493193,1,j,1,change,1.0671885694555385,1,0,0,0,0.3874647109423677,0,0,6.585344833669296
20,21,female,27,45,45,left,same,valid,clock,1,1.2893603291013278,0,j,0,change,1.2071125291950011,0.9984630597240094,0,0,0,0.3875404048085329,0,0,5.177034801858099
20,21,female,28,105,105,left,same,valid,clock,1,2.2013527391882235,0,j,0,change,1.440138981635755,1,0,0,0,0.3874878039869145,0,0,7.04492463007864
20,21,female,29,75,125,left,change,valid,clock,2,0.8494471461162902,1,j,1,change,1.0556080494643538,1,0,0,0,0.38749165282661124,0,0,4.7837403803041525
20,21,female,30,75,75,left,same,valid,clock,2,1.0414520136164356,1,f,1,same,0.7985686803167482,1,0,0,0,0.38743103358683584,0,0,5.081003341435462
20,21,female,31,45,45,right,same,valid,clock,2,1.3694357792082883,1,j,0,change,0.6688428653087612,1,0,0,0,0.3875201983946681,0,0,5.289807436088267
20,21,female,32,15,325,left,change,valid,anti,1,2.457481857527455,0,f,0,same,1.0969256743974256,1,0,0,0,0.3874695219928981,0,0,6.616217667333331
20,21,female,33,15,15,left,same,valid,anti,3,1.1934420887391752,1,f,1,same,0.7477219674492517,1,0,0,0,0.38747305009655975,0,0,4.976784434775254
20,21,female,34,135,135,right,same,valid,clock,2,1.737469938951108,1,j,0,change,0.8982956692198059,1,0,0,0,0.38746022062787233,0,0,5.687112028845149
20,21,female,35,45,95,right,change,valid,clock,1,1.0894400001034228,0,j,1,change,1.2389652135370852,1,0,0,0,0.38741948706501717,0,0,4.982885167915811
20,21,female,36,105,55,right,change,valid,anti,1,1.201472053247926,0,j,1,change,0.7206703910615033,1,0,0,0,0.3874643902063326,0,0,5.509689777029962
20,21,female,37,135,185,left,change,valid,clock,2,1.3374259338725096,1,j,1,change,0.7440123265532748,1,0,0,0,0.38748203072464094,0,0,4.945867339443794
20,21,female,38,45,45,left,same,valid,anti,1,0.9294767308729206,0,j,0,change,0.6534879156024544,1,0,0,0,0.3875269338659564,0,0,4.727247418230036
20,21,female,39,165,45,right,change,catch,anti,1,1.9853865935892827,0,j,1,change,0.7903761022917024,0,0,0,0,0.38751923618474393,0,0,6.9537539346374615
20,21,female,40,165,215,left,change,valid,clock,2,1.8881510875216918,1,j,1,change,0.891290779269184,1,0,0,0,0.38748587956524716,0,0,6.287883657245402
20,21,female,41,15,15,left,same,valid,clock,2,1.3294646070244198,1,f,1,same,1.0764052598242415,1,0,0,0,0.3874563717881756,0,0,5.272165312837387
20,21,female,42,105,155,left,change,valid,clock,2,1.145475912351685,1,f,0,same,0.8543431921389129,1,0,0,0,0.3874525229475694,0,0,5.2699419658974875
20,21,female,43,105,105,right,same,valid,clock,1,1.6654706394401728,0,j,0,change,0.8411471212912147,1,0,0,0,0.3874845966192879,0,0,5.540031470686699
20,21,female,44,135,185,right,change,valid,clock,1,7.225417294508588,0,j,1,change,0.7447968485685124,1,0,0,0,0.387445146002392,0,0,10.744989932073622
20,21,female,45,165,165,right,same,valid,anti,1,0.8814399924049212,0,j,0,change,0.9834355521252292,1,0,0,0,0.3874813892516613,0,0,5.114931513087868
20,21,female,46,105,105,right,change,catch,anti,1,0.9373360634435812,0,j,1,change,0.8535840083241055,0,0,0,0,0.3874961431411066,0,0,6.283105321599578
20,21,female,47,75,125,right,change,valid,clock,1,3.672469435394305,0,j,1,change,0.8843186044614413,1,0,0,0,0.38744963631597784,0,0,7.972834882812094
20,21,female,48,165,115,right,change,valid,anti,2,1.3694668906700826,1,f,0,same,0.9530095047120994,1,0,0,0,0.3874945394572933,0,0,5.135655916213182
20,21,female,49,15,45,left,same,catch,clock,1,1.3055511186976219,0,j,0,change,1.0277206331866182,0,0,0,0,0.38752404723618383,0,0,6.891179804363674
20,21,female,50,135,135,left,same,valid,anti,1,1.0163072170253145,0,f,1,same,1.0581328889220458,1,0,0,0,0.38742622253630543,0,0,4.912707652970312
20,21,female,51,165,165,left,same,valid,anti,2,0.9375089405348263,1,f,1,same,0.811031867759084,1,0,0,0,0.38750031271865737,0,0,5.253993973998149
20,21,female,52,15,65,left,change,valid,clock,2,1.513429567177809,1,f,0,same,0.8100266788806039,1,0,0,0,0.38746503167931223,0,0,5.187306074561093
20,21,female,53,15,325,right,change,valid,anti,2,1.3054196166413021,1,j,1,change,0.8758729651653994,1,0,0,0,0.38753591449403757,0,0,5.014651253341981
20,21,female,54,75,75,left,same,valid,anti,2,1.4814466637290025,1,j,0,change,1.8868639710672142,1,0,0,0,0.3874563717881756,0,0,6.10193686490129
20,21,female,55,15,15,right,same,valid,clock,2,1.3213935882176884,1,f,1,same,0.7674963484132604,1,0,0,0,0.3875115385035315,0,0,5.289275975344026
20,21,female,56,15,15,right,same,valid,anti,3,1.8894382039761695,1,f,1,same,1.344144405935367,1,0,0,0,0.3874788233588333,0,0,6.327542111127514
20,21,female,57,165,95,left,change,catch,anti,1,1.1054021044183173,0,j,1,change,0.8969444054218911,0,0,0,0,0.3874942187212582,0,0,6.797996806744777
20,21,female,58,135,135,left,same,valid,clock,2,1.2564812872569746,1,f,1,same,0.7597168792835873,1,0,0,0,0.3874467496862053,0,0,5.181540511292951
20,21,female,1,105,105,left,same,valid,clock,1,1.1841230833579175,0,j,0,change,0.7464082298465655,1,0,0,0,0.38747465378128254,0,0,4.68091186732272
20,21,female,2,15,15,left,same,valid,anti,2,1.217410423045294,1,f,1,same,0.59054429662865,1,0,0,0,0.38752244355237053,0,0,4.920142330127419
20,21,female,3,15,15,right,same,valid,clock,2,2.569470290478421,1,j,0,change,1.9140104855250684,1,0,0,0,0.3874926150365354,0,0,7.733527443196181
20,21,female,4,75,75,right,same,valid,anti,1,1.3374079726163473,0,j,0,change,0.6678710330470494,1,0,0,0,0.38752565091999713,0,0,4.754323049872255
20,21,female,5,135,135,right,same,valid,anti,3,1.4414677938621026,1,f,1,same,0.6113229042584862,1,0,0,0,0.38748267219853005,0,0,4.978800265056634
20,21,female,6,75,75,right,same,valid,clock,1,1.185478195997348,0,j,0,change,0.6935707041648129,1,0,0,0,0.38740409170259227,0,0,4.769090089171186
20,21,female,7,105,155,left,change,valid,clock,2,1.489355710493328,1,f,0,same,0.6148147649219027,1,0,0,0,0.3873909414978698,0,0,5.098019065873814
20,21,female,8,165,215,right,change,valid,clock,1,1.3213682500154391,0,j,1,change,0.76624258857737,1,0,0,0,0.38753687670396175,0,0,5.051221012617134
20,21,female,9,75,75,left,same,valid,anti,2,3.34548251952765,1,f,1,same,0.7116897629184677,1,0,0,0,0.38744290084559907,0,0,6.9472083396685775
20,21,female,10,105,135,left,change,catch,clock,2,2.56140889377275,1,f,0,same,0.8580788127092092,0,0,0,0,0.38749646387805115,0,0,7.936266727221664
20,21,female,11,45,355,left,change,valid,anti,2,1.223991299055342,1,j,1,change,0.7140202359205432,1,0,0,0,0.3873931866546627,0,0,4.901988952544343
20,21,female,12,45,45,left,same,valid,anti,1,1.113448105759744,0,f,1,same,0.8467856728184415,1,0,0,0,0.38751763250093063,0,0,5.162794091516844
20,21,female,13,135,85,left,change,valid,anti,2,1.5454442235641181,1,j,1,change,0.6511818185899756,1,0,0,0,0.3875163495540619,0,0,5.245664441395093
20,21,female,14,165,165,left,same,valid,anti,4,2.3214817908155965,1,f,1,same,0.8577410769448761,1,0,0,0,0.3874708049406763,0,0,6.266907155058107
20,21,female,15,45,45,right,same,valid,clock,2,2.0014099586169323,1,j,0,change,0.9117871385860781,1,0,0,0,0.387474333044338,0,0,6.105112479160198
20,21,female,16,15,75,left,change,catch,anti,3,2.2333869605135988,1,f,0,same,0.8475920049331762,0,0,0,0,0.3874974260879753,0,0,7.78080820521518
20,21,female,17,165,165,left,change,catch,clock,1,2.416081803259658,0,f,0,same,0.6712689178548317,0,0,0,0,0.38744065568880615,0,0,7.765831404101846
20,21,female,18,135,185,left,change,valid,clock,2,1.4241922726832854,1,f,0,same,0.9073462179676426,1,0,0,0,0.38750223713850573,0,0,5.504963079996742
20,21,female,19,105,105,right,same,valid,clock,1,1.0654383091787167,0,j,0,change,0.9002585779435321,1,0,0,0,0.38747786114799965,0,0,4.699831484927927
20,21,female,20,105,55,right,change,valid,anti,2,1.244656365885021,1,j,1,change,0.9957287491070019,1,0,0,0,0.3874467496862053,0,0,5.307745599331611
20,21,female,21,45,95,left,change,valid,clock,2,1.5294638372542977,1,f,0,same,0.9185617395723966,1,0,0,0,0.38741660043342563,0,0,5.858649403333402
20,21,female,22,135,135,right,same,valid,clock,2,1.1854304062271694,1,j,0,change,0.8142642524180701,1,0,0,0,0.38740248801877897,0,0,4.799490477647851
20,21,female,23,45,355,right,change,valid,anti,2,2.145458592569412,1,j,1,change,0.8811436316755135,1,0,0,0,0.3874429008446896,0,0,6.216378292281661
20,21,female,24,75,25,left,change,valid,anti,1,1.321457414822362,0,j,1,change,1.1399268463683256,1,0,0,0,0.3874615035747411,0,0,5.687070012336335
20,21,female,25,105,55,left,change,valid,anti,2,1.2894825297917123,1,f,0,same,0.721308977870649,1,0,0,0,0.3874095442279213,0,0,5.58355512277376
20,21,female,26,165,115,right,change,valid,anti,1,0.9294661465592071,0,j,1,change,0.5843643415191764,1,0,0,0,0.3875375181760319,0,0,4.485621052132046
20,21,female,27,45,95,right,change,valid,clock,2,1.1694413600253029,1,j,1,change,0.8005678322879248,1,0,0,0,0.38746182431168563,0,0,4.831104533868711
20,21,female,28,15,325,left,change,valid,anti,1,1.4573792217761365,0,f,0,same,1.184165099868551,1,0,0,0,0.3873935073897883,0,0,5.6895258933964215
20,21,female,29,15,15,left,same,valid,clock,1,1.1215098232023593,0,f,1,same,1.0190963435379672,1,0,0,0,0.3874522022106248,0,0,5.457266963925576
20,21,female,30,15,185,right,same,catch,anti,1,2.2174524395559274,0,j,0,change,1.3352073979858687,0,0,0,0,0.3874653524162568,0,0,8.700179163530265
20,21,female,31,15,65,left,change,valid,clock,1,1.3203752491317573,0,j,1,change,0.861562334219343,1,0,0,0,0.3874483533709281,0,0,5.402351064301911
20,21,female,32,15,325,right,change,valid,anti,2,1.0733877687689528,1,f,0,same,1.1133541299022909,1,0,0,0,0.3874862003031012,0,0,5.242657534650789
20,21,female,33,135,85,right,change,valid,anti,1,1.3934682608560252,0,j,1,change,0.6423721431183367,1,0,0,0,0.38742269443173427,0,0,5.624481769646081
20,21,female,34,165,165,right,same,valid,clock,2,1.0414674089788605,1,f,1,same,0.9330154190975009,1,0,0,0,0.38742942990393203,0,0,4.7755362557581975
20,21,female,35,15,45,left,same,catch,clock,1,1.433441357459742,0,j,0,change,1.101522793796903,0,0,0,0,0.3874143552766327,0,0,7.156887724828266
20,21,female,36,15,65,right,change,valid,clock,2,1.6164309572504862,1,j,1,change,0.8444638597084122,1,0,0,0,0.38753527302105795,0,0,5.350675247014806
20,21,female,37,165,115,left,change,valid,anti,3,2.3134752400874277,1,j,1,change,0.7667487111193623,1,0,0,0,0.38664522862382,0,0,5.902478076041007
20,21,female,38,165,165,left,same,valid,clock,2,1.4894018965806026,1,j,0,change,0.971119262099819,1,0,0,0,0.3874935772473691,0,0,5.460613530854971
20,21,female,39,105,215,right,same,catch,clock,2,1.5613800274677487,1,j,0,change,0.965734734054422,0,0,0,0,0.3874807477786817,0,0,7.000205912972888
20,21,female,40,135,135,left,same,valid,anti,2,1.3122731188632315,1,j,0,change,1.055893825881867,1,0,0,0,0.38756766743063054,0,0,5.713659727847698
20,21,female,41,135,135,left,same,valid,clock,2,1.1374635883639712,1,j,0,change,0.8652687677495123,1,0,0,0,0.38751346292337985,0,0,5.329851094771584
20,21,female,42,165,95,left,change,catch,anti,1,0.9374752631811134,0,j,1,change,1.0218296618604654,0,0,0,0,0.387495822404162,0,0,6.4708854450309445
20,21,female,43,75,125,left,change,valid,clock,1,1.2964412336550595,0,j,1,change,1.030488591073663,1,0,0,0,0.38740986496304686,0,0,5.910084026605546
20,21,female,44,75,25,right,change,valid,anti,2,1.0975007553352043,1,j,1,change,0.875400519978939,1,0,0,0,0.3874701634667872,0,0,5.3635396760946605
20,21,female,45,105,105,left,same,valid,anti,2,1.4654351659592066,1,j,0,change,0.8642616544511839,1,0,0,0,0.38754906469876005,0,0,5.18114536365465
20,21,female,46,45,45,right,same,valid,anti,1,1.3374544794405665,0,j,0,change,0.8960254947196518,1,0,0,0,0.3874605413657264,0,0,5.168675440740117
20,21,female,47,105,105,right,change,catch,anti,1,0.8173381931355834,0,j,1,change,0.6915016315888352,0,0,0,0,0.38747625746327685,0,0,5.955551022476357
20,21,female,48,105,155,right,change,valid,clock,2,1.2561720970606984,1,f,0,same,1.2996790708384651,1,0,0,0,0.387389337813147,0,0,5.754307333772886
20,21,female,49,165,45,right,change,catch,anti,1,0.9934887238578085,0,j,1,change,0.8859777755114919,0,0,0,0,0.3874089027522132,0,0,6.844906797117801
20,21,female,50,135,75,right,same,catch,clock,1,1.064509455638472,0,j,0,change,0.7326473416378576,0,0,0,0,0.38742301516867883,0,0,6.626423830482963
20,21,female,51,75,125,right,change,valid,clock,1,1.14440946276045,0,j,1,change,0.8314294401679945,1,0,0,0,0.38749646387805115,0,0,5.274238234254881
20,21,female,52,165,215,left,change,valid,clock,2,0.9934431792462419,1,j,1,change,0.7418823139996675,1,0,0,0,0.3874647109423677,0,0,4.577911760196002
20,21,female,53,165,165,right,same,valid,anti,2,1.2574354789976496,1,j,0,change,0.7614793275552074,1,0,0,0,0.38745124000161013,0,0,4.757972392266311
20,21,female,54,45,45,left,same,valid,clock,2,1.0254488550017413,1,f,1,same,0.8864438059663371,1,0,0,0,0.3874457874771906,0,0,4.77362049533258
20,21,female,55,105,105,right,same,valid,anti,1,1.2575188705450273,0,j,0,change,0.8559911374031799,1,0,0,0,0.3874297506390576,0,0,5.103566848909395
20,21,female,56,15,15,right,same,valid,anti,1,1.5774287306976476,0,j,0,change,0.7404033969869488,1,0,0,0,0.38745861694405903,0,0,5.193356452035005
20,21,female,57,75,75,left,same,valid,clock,1,1.1934533145249588,0,j,0,change,1.0458063353198668,1,0,0,0,0.38748170998951537,0,0,5.02064742631228
20,21,female,58,135,185,right,change,valid,clock,2,1.0814501276854571,1,j,1,change,0.723860759208037,1,0,0,0,0.3874361653743108,0,0,5.164043361037329
20,21,female,1,165,165,left,same,valid,clock,3,3.720301543833557,1,f,1,same,0.5064763158388814,1,0,0,0,0.3874573339980998,0,0,7.097295804571331
20,21,female,2,45,45,left,same,valid,anti,1,2.4091343251802755,0,j,0,change,0.9742018627093785,1,0,0,0,0.3874871625121159,0,0,6.148961679018612
20,21,female,3,15,45,left,same,catch,clock,1,0.9534412163375237,0,j,0,change,0.8203434961978928,0,0,0,0,0.3873915829699399,0,0,6.517107775876866
20,21,female,4,135,85,left,change,valid,anti,1,1.4644713521174708,0,j,1,change,1.2186628999334062,1,0,0,0,0.3875121799774206,0,0,5.759456761803449
20,21,female,5,45,95,left,change,valid,clock,1,1.6253682859387482,0,f,0,same,0.7855323363546631,1,0,0,0,0.38745605105032155,0,0,5.657793806059999
20,21,female,6,15,75,left,change,catch,anti,1,1.0254889470907074,0,j,1,change,0.8209445568081719,0,0,0,0,0.3874377690572146,0,0,5.986749083172981
20,21,female,7,105,135,left,change,catch,clock,2,1.2323634896420117,1,j,1,change,1.084513484092895,0,0,0,0,0.387410506436936,0,0,6.782776566460598
20,21,female,8,15,65,right,change,valid,clock,2,1.1364539091719053,1,f,0,same,1.4073657829085278,1,0,0,0,0.38741563822441094,0,0,5.173023668445239
20,21,female,9,105,105,right,same,valid,clock,1,0.9694376394800202,0,j,0,change,0.8421648189014377,1,0,0,0,0.38749646387623216,0,0,5.336767140650409
20,21,female,10,75,125,left,change,valid,clock,1,5.913387294078348,0,f,0,same,0.8599278598958335,1,0,0,0,0.38742109074883047,0,0,9.472748925372798
20,21,female,11,135,135,left,same,valid,clock,2,1.129505468881689,1,f,1,same,0.7354903519189975,1,0,0,0,0.3874467496862053,0,0,4.657925308116319
20,21,female,12,105,105,left,same,valid,clock,1,0.7614078032693214,0,j,0,change,0.9872083781556285,1,0,0,0,0.3874695219928981,0,0,4.783769246609154
20,21,female,13,105,155,left,change,valid,clock,3,1.4494903814265854,1,j,1,change,0.7761940867694648,1,0,0,0,0.3875096140836831,0,0,5.304990791648379
20,21,female,14,165,215,left,change,valid,clock,3,2.329389233895199,1,j,1,change,1.2623337701770652,1,0,0,0,0.3874743330434285,0,0,6.624016380665125
20,21,female,15,15,325,left,change,valid,anti,3,1.9054663800561684,1,j,1,change,0.9278913292691868,1,0,0,0,0.3874756159912067,0,0,5.9524302541958605
20,21,female,16,45,45,right,same,valid,clock,1,1.1614489217154187,0,j,0,change,1.1277263422998658,1,0,0,0,0.3875041615592636,0,0,5.1748772059472685
20,21,female,17,15,15,right,same,valid,clock,2,1.1374555699458142,1,f,1,same,0.8291114758940239,1,0,0,0,0.38754329143921495,0,0,5.377885267344027
20,21,female,18,75,75,right,same,valid,clock,2,1.1614838820169098,1,j,0,change,0.74984460306041,1,0,0,0,0.3874538058935286,0,0,4.971477204278926
20,21,female,19,75,75,left,same,valid,clock,2,1.5854400924763468,1,j,0,change,0.6338771103673935,1,0,0,0,0.3874595791548927,0,0,5.200840843383048
20,21,female,20,45,355,right,change,valid,anti,2,3.9374293978307833,1,j,1,change,0.956749294859037,1,0,0,0,0.38739928065115237,0,0,7.685161628854985
20,21,female,21,135,85,right,change,valid,anti,3,1.4573320734798472,1,j,1,change,0.6677558885658073,1,0,0,0,0.38748427588325285,0,0,5.184718691445596
20,21,female,22,45,355,left,change,valid,anti,2,1.6493856929610047,1,f,0,same,0.8774420091976936,1,0,0,0,0.38748203072464094,0,0,5.428354473089712
20,21,female,23,15,325,right,change,valid,anti,1,0.8094448624724464,0,j,1,change,0.7295448553522874,1,0,0,0,0.3875153873432282,0,0,4.35855478600206
20,21,female,24,75,25,right,change,valid,anti,2,2.281439094342204,1,f,0,same,0.8681502664348955,1,0,0,0,0.38742622253630543,0,0,5.996915474970592
20,21,female,25,165,165,right,same,valid,clock,2,1.0654909100012446,1,f,1,same,1.059119795807419,1,0,0,0,0.3874967846149957,0,0,5.444183150930257
20,21,female,26,105,155,right,change,valid,clock,2,1.2494670959404175,1,j,1,change,0.6314763960235723,1,0,0,0,0.3874554095782514,0,0,5.223640733818684
20,21,female,27,135,135,right,same,valid,anti,1,1.873402330216777,0,j,0,change,0.8884378261500387,1,0,0,0,0.38750512377009727,0,0,5.884119426958932
20,21,female,28,15,15,left,same,valid,anti,1,1.0414603527715371,0,j,0,change,0.782820828129843,1,0,0,0,0.387487803986005,0,0,4.673586240651275
20,21,female,29,135,75,right,same,catch,clock,1,0.7613754088597489,0,j,0,change,0.752010538126342,0,0,0,0,0.38752565091817814,0,0,6.127160883463148
20,21,female,30,105,55,left,change,valid,anti,2,0.8484082798822783,1,f,0,same,1.2249785266758408,1,0,0,0,0.3874541266304732,0,0,5.243992440877264
20,21,female,31,165,115,right,change,valid,anti,2,1.033452519099228,1,j,1,change,0.7878579983080272,1,0,0,0,0.38744963631688734,0,0,5.1688390164672455
20,21,female,32,15,185,right,same,catch,anti,1,0.745480659254099,0,j,0,change,0.9077760051732184,0,0,0,0,0.3874765782002214,0,0,6.376589811734448
20,21,female,33,105,105,right,same,valid,anti,1,1.4323999253319926,0,j,0,change,1.3972994609684974,1,0,0,0,0.3874605413639074,0,0,6.006300552116954
20,21,female,34,15,15,left,same,valid,clock,2,0.9854719095583278,1,f,1,same,0.8945411251825135,1,0,0,0,0.38747689893716597,0,0,5.3749091513254825
20,21,female,35,135,185,right,change,valid,clock,1,0.6814321022811782,0,j,1,change,0.8665622989392432,1,0,0,0,0.3875227642893151,0,0,4.423501085051612
20,21,female,36,75,25,left,change,valid,anti,2,1.1295365803434834,1,f,0,same,1.037063693820528,1,0,0,0,0.3874708049406763,0,0,5.046551727455153
20,21,female,37,135,185,left,change,valid,clock,1,0.905395176503589,0,j,1,change,1.3449311731073976,1,0,0,0,0.387442580107745,0,0,5.583380962736555
20,21,female,38,105,105,right,change,catch,anti,2,1.7454524344229867,1,f,0,same,1.2321861222353618,0,0,0,0,0.38745540957643243,0,0,7.733882178006752
20,21,female,39,105,55,right,change,valid,anti,2,0.8634626992807171,1,j,1,change,1.0440201525307202,1,0,0,0,0.38745989989183727,0,0,5.042369962107841
20,21,female,40,135,135,left,same,valid,anti,3,1.569441744910364,1,f,1,same,0.6069971281231119,1,0,0,0,0.38746086210267094,0,0,5.506121901764345
20,21,female,41,165,115,left,change,valid,anti,2,1.2974743266295263,1,j,1,change,0.6676054630443105,1,0,0,0,0.38745508883948787,0,0,4.854125091169408
20,21,female,42,45,45,left,same,valid,clock,2,1.6253679651999846,1,j,0,change,1.6665682004950213,1,0,0,0,0.3875137836603244,0,0,6.233682359030354
20,21,female,43,135,135,right,same,valid,clock,2,1.2415160326654586,1,f,1,same,1.099192000056064,1,0,0,0,0.3874201285379968,0,0,5.67993682769702
20,21,female,44,75,125,right,change,valid,clock,2,1.2574127066909568,1,f,0,same,1.3973280065383733,1,0,0,0,0.3874685597838834,0,0,6.0474260557530215
20,21,female,45,105,105,left,same,valid,anti,2,1.5135389384013251,1,j,0,change,1.044479126774604,1,0,0,0,0.3874871625139349,0,0,6.097665934745237
20,21,female,46,75,75,left,same,valid,anti,2,3.1454823270869383,1,j,0,change,1.0566254263394512,1,0,0,0,0.3875189154477994,0,0,7.531959810406988
20,21,female,47,45,95,right,change,valid,clock,1,0.9534008035097941,0,j,1,change,0.9453451800636685,1,0,0,0,0.3874692012577725,0,0,5.524692878554561
20,21,female,48,15,65,left,change,valid,clock,2,1.105413971676171,1,f,0,same,0.9425146785160905,1,0,0,0,0.3874287884300429,0,0,5.081262496703857
20,21,female,49,75,75,right,same,valid,anti,1,1.5934450395179738,0,j,0,change,0.8792945844888891,1,0,0,0,0.38738260234094923,0,0,5.498226005205652
20,21,female,50,165,165,left,same,valid,anti,1,2.0334618204615253,0,f,1,same,0.9276514182020037,1,0,0,0,0.387495822404162,0,0,5.917052352571773
20,21,female,51,105,215,right,same,catch,clock,1,4.649415200738076,0,j,0,change,0.8212444456421508,0,0,0,0,0.38751602881711733,0,0,10.214216847529315
20,21,female,52,45,45,right,same,valid,anti,2,1.4315268799819023,1,f,1,same,1.0182800685870461,1,0,0,0,0.38745124000161013,0,0,5.560760684862544
20,21,female,53,15,15,right,same,valid,anti,2,1.0894569991487515,1,f,1,same,0.86750494415719,1,0,0,0,0.38745188147368026,0,0,5.525579394845408
20,21,female,54,165,165,left,change,catch,clock,1,0.9615449502889533,0,f,0,same,1.0190931361703406,0,0,0,0,0.38754810248792637,0,0,6.548426433580971
20,21,female,55,165,215,right,change,valid,clock,2,1.3525685558688565,1,f,0,same,1.0188541873139911,1,0,0,0,0.3875663844828523,0,0,5.912714709178545
20,21,female,56,165,45,right,change,catch,anti,2,1.5054047344601713,1,f,0,same,1.1901275954805897,0,0,0,0,0.38748106851562625,0,0,7.593787265595893
20,21,female,57,165,165,right,same,valid,anti,1,1.328269542007547,0,j,0,change,1.219425291117659,1,0,0,0,0.3874541266304732,0,0,5.55209790680783
20,21,female,58,165,95,left,change,catch,anti,1,1.6415260396515805,0,j,1,change,1.0406267580383428,0,0,0,0,0.38755163059249753,0,0,7.484238676870518
20,21,female,1,105,135,left,change,catch,clock,1,1.184452479967149,0,j,1,change,0.603284600596453,0,0,0,0,0.38748427588325285,0,0,6.446189038371813
20,21,female,2,135,135,left,same,valid,clock,2,1.2801968810290418,1,f,1,same,0.849108127404179,1,0,0,0,0.38743969347888196,0,0,5.182173004104698
20,21,female,3,15,325,left,change,valid,anti,1,0.993347599702247,0,j,1,change,1.291851491201669,1,0,0,0,0.38748363440936373,0,0,5.145104499230001
20,21,female,4,135,135,right,same,valid,anti,2,1.5694863273147348,1,j,0,change,1.047532861080981,1,0,0,0,0.3875349522841134,0,0,5.844382071843938
20,21,female,5,75,25,left,change,valid,anti,3,1.1454162553218339,1,j,1,change,0.9353340248417226,1,0,0,0,0.3875144251342135,0,0,5.495716881849148
20,21,female,6,105,105,left,same,valid,clock,2,2.761469384717202,1,f,1,same,0.6893443564131303,1,0,0,0,0.38747786114799965,0,0,6.300316695436777
20,21,female,7,165,215,left,change,valid,clock,3,1.841486140005145,1,j,1,change,0.8053326969911723,1,0,0,0,0.3874570132611552,0,0,5.564545378150797
20,21,female,8,15,15,left,same,valid,clock,2,1.1455118348640099,1,f,1,same,1.1142509097699076,1,0,0,0,0.38753366933633515,0,0,5.241327118739719
20,21,female,9,45,355,left,change,valid,anti,1,1.097408383158836,0,j,1,change,1.391085828505311,1,0,0,0,0.3874749745173176,0,0,6.054196166425754
20,21,female,10,105,55,right,change,valid,anti,1,1.281385852045787,0,j,1,change,0.8348051941393351,1,0,0,0,0.3874271847471391,0,0,5.737135089815638
20,21,female,11,15,185,right,same,catch,anti,2,1.1134901222703775,1,j,0,change,0.8283105963073467,0,0,0,0,0.38742782621920924,0,0,6.595063156268225
20,21,female,12,165,165,right,same,valid,anti,1,1.904284144509802,0,j,0,change,1.2255847190754139,1,0,0,0,0.3875243679722189,0,0,6.274521765513782
20,21,female,13,105,105,right,same,valid,anti,1,1.5613437842184794,0,j,0,change,1.1578005415321968,1,0,0,0,0.38747305009746924,0,0,5.961615191630699
20,21,female,14,15,15,right,same,valid,anti,2,1.585472807621045,1,f,1,same,0.5801043164119619,1,0,0,0,0.3875189154477994,0,0,5.457476084266091
20,21,female,15,165,165,right,same,valid,clock,3,1.7694759354435519,1,j,0,change,0.9001408675685525,1,0,0,0,0.3875057652421674,0,0,5.58008090263138
20,21,female,16,105,105,right,change,catch,anti,2,2.6414240453741513,1,j,1,change,1.1167058286209794,0,0,0,0,0.3875218020784814,0,0,8.263691769447178
20,21,female,17,75,125,left,change,valid,clock,2,1.2164658534074988,1,f,0,same,0.7270838425029069,1,0,0,0,0.387421411485775,0,0,5.492240737283282
20,21,female,18,45,45,left,same,valid,clock,2,1.785499621209965,1,f,1,same,0.7439638953092071,1,0,0,0,0.38746727683610516,0,0,5.631938898372027
20,21,female,19,165,165,left,same,valid,anti,3,0.9534758559020702,1,j,0,change,1.0301999280254677,1,0,0,0,0.38748427588325285,0,0,4.886900855788554
20,21,female,20,75,75,left,same,valid,anti,2,1.3854864068580355,1,f,1,same,0.9313687567791931,1,0,0,0,0.38747786114799965,0,0,5.683295903358157
20,21,female,21,75,75,left,same,valid,clock,3,1.7054283406814648,1,f,1,same,0.9332858001507702,1,0,0,0,0.3874621450486302,0,0,5.48353145240435
20,21,female,22,165,115,right,change,valid,anti,3,1.0734249742272368,1,j,1,change,0.8782181920578296,1,0,0,0,0.3875073689268902,0,0,4.8705984498155885
20,21,female,23,135,75,right,same,catch,clock,1,2.31346850461523,0,j,0,change,0.8950591149841784,0,0,0,0,0.3874223736947897,0,0,7.936794018389264
20,21,female,24,105,105,left,same,valid,anti,2,1.8798696654266678,1,f,1,same,0.8919800424773712,1,0,0,0,0.3875234057613852,0,0,5.852193293909295
20,21,female,25,165,215,right,change,valid,clock,3,1.457459085220762,1,j,1,change,0.8483450947496749,1,0,0,0,0.38743808979597816,0,0,5.329023594034879
20,21,female,26,45,45,left,same,valid,anti,2,0.9854286100999161,1,f,1,same,0.958439577372701,1,0,0,0,0.3874775404110551,0,0,4.944005142051537
20,21,female,27,45,95,right,change,valid,clock,3,1.5694529706943285,1,j,1,change,0.9420813632077625,1,0,0,0,0.3875413670193666,0,0,5.429940516167335
20,21,female,28,15,45,left,same,catch,clock,1,1.5455439726847544,0,j,0,change,1.0424273739808996,0,0,0,0,0.3873691314001917,0,0,6.938168695967761
20,21,female,29,135,135,right,same,valid,clock,1,2.264331318465338,0,j,0,change,1.5916380088419828,1,0,0,0,0.38747465378219204,0,0,6.735693698999967
20,21,female,30,15,15,right,same,valid,clock,4,2.1214338086010684,1,f,1,same,0.8629431057961483,1,0,0,0,0.3875275753398455,0,0,5.794937299178855
20,21,female,31,15,15,left,same,valid,anti,3,1.5534453217660484,1,f,1,same,1.1179246281535598,1,0,0,0,0.38751667029100645,0,0,5.846678226016593
20,21,female,32,135,85,left,change,valid,anti,3,1.7614998547051073,1,j,1,change,1.0639504115370073,1,0,0,0,0.387455730315196,0,0,6.1953386049626715
20,21,female,33,135,85,right,change,valid,anti,3,1.409432289590768,1,j,1,change,0.8712139435792778,1,0,0,0,0.387530141233583,0,0,5.640748253108541
20,21,female,34,105,55,left,change,valid,anti,1,0.8174594316151342,0,j,1,change,0.8054975556660793,1,0,0,0,0.38748042704173713,0,0,4.344237098846861
20,21,female,35,15,75,left,change,catch,anti,2,1.4494422709194623,1,j,1,change,0.7702534012514661,0,0,0,0,0.3875064067160565,0,0,6.704222691352697
20,21,female,36,45,45,right,same,valid,clock,1,1.0241309478224139,0,j,0,change,0.9824685309176857,1,0,0,0,0.3874935772455501,0,0,5.160230442917964
20,21,female,37,15,65,right,change,valid,clock,1,0.8734292721019301,0,f,0,same,1.3984871490429214,1,0,0,0,0.38745508884130686,0,0,5.267500197252957
20,21,female,38,135,185,left,change,valid,clock,1,1.9612415333522222,0,j,1,change,0.7315314985899022,1,0,0,0,0.38754329143739596,0,0,5.849404167396642
20,21,female,39,15,325,right,change,valid,anti,1,2.3854338060355076,0,j,1,change,0.776535350640188,1,0,0,0,0.38745188147368026,0,0,6.029649864552994
20,21,female,40,165,95,left,change,catch,anti,2,1.1774171200268029,1,f,0,same,0.773162804034655,0,0,0,0,0.38745669252421067,0,0,6.829136814096273
20,21,female,41,45,355,right,change,valid,anti,1,0.904454134968546,0,j,1,change,0.8231884308970621,1,0,0,0,0.38748844545989414,0,0,4.876682825382886
20,21,female,42,15,65,left,change,valid,clock,2,1.041401337215575,1,j,1,change,0.7603060726360127,1,0,0,0,0.3875237264983298,0,0,4.743165260877504
20,21,female,43,45,95,left,change,valid,clock,3,1.3454988771009084,1,j,1,change,0.6587463941177703,1,0,0,0,0.3875391218607547,0,0,5.040539838388213
20,21,female,44,165,115,left,change,valid,anti,1,1.4414456630311179,0,f,0,same,1.1757242716230394,1,0,0,0,0.3874647109423677,0,0,5.536206364571626
20,21,female,45,135,185,right,change,valid,clock,1,1.1935120093439764,0,j,1,change,0.8156716451412649,1,0,0,0,0.38746503167931223,0,0,5.341286000291802
20,21,female,46,135,135,left,same,valid,anti,2,1.1454201041615306,1,f,1,same,0.7105331863076572,1,0,0,0,0.3875083311359049,0,0,4.836757197812403
20,21,female,47,75,75,right,same,valid,clock,1,1.0894329438942805,0,j,0,change,0.8904844471562683,1,0,0,0,0.38742109074883047,0,0,5.215485681992504
20,21,female,48,45,45,right,same,valid,anti,1,1.1694859424296737,0,j,0,change,1.114997584852972,1,0,0,0,0.38740441243862733,0,0,5.435025155380572
20,21,female,49,165,165,left,same,valid,clock,3,1.505456693806991,1,f,1,same,0.6277000418886018,1,0,0,0,0.3875096140836831,0,0,5.54180289958822
20,21,female,50,75,75,right,same,valid,anti,2,1.0974648328210606,1,j,0,change,1.2624123506739124,1,0,0,0,0.3874419386356749,0,0,5.146021806247518
20,21,female,51,105,155,right,change,valid,clock,3,1.665439848713504,1,j,1,change,0.8675799965494662,1,0,0,0,0.38755227206638665,0,0,5.957624906104684
20,21,female,52,105,105,right,same,valid,clock,2,1.297357899200506,1,f,1,same,1.2435033173806005,1,0,0,0,0.3874489948429982,0,0,5.253336784460771
20,21,female,53,165,45,right,change,catch,anti,1,1.297397991291291,0,j,1,change,0.6680936243319593,0,0,0,0,0.38742429811645707,0,0,6.876072463404853
20,21,female,54,105,155,left,change,valid,clock,2,1.3043939006147411,1,f,0,same,0.7989317542815115,1,0,0,0,0.38754810248792637,0,0,5.217228565326877
20,21,female,55,75,125,right,change,valid,clock,2,4.5612247908957215,1,j,1,change,1.7676759609748842,1,0,0,0,0.3874441837924678,0,0,9.301602528943476
20,21,female,56,75,25,right,change,valid,anti,1,2.233498256155144,0,j,1,change,0.6037345942131651,1,0,0,0,0.3874605413639074,0,0,5.794940827283426
20,21,female,57,105,215,right,same,catch,clock,1,2.0414212228934048,0,j,0,change,0.7659571328968013,0,0,0,0,0.3874669560991606,0,0,7.484819851806606
20,21,female,58,165,165,left,change,catch,clock,2,2.400239654476536,1,j,1,change,0.7245683044129692,0,0,0,0,0.38741948706592666,0,0,7.5151246607401845
20,21,female,1,135,135,right,same,valid,clock,1,1.2964187820871302,0,j,0,change,0.6840146743470541,1,0,0,0,0.38746663536403503,0,0,5.041397488375878
20,21,female,2,135,135,left,same,valid,anti,1,1.2654391430951364,0,f,1,same,1.2161277969044022,1,0,0,0,0.38742942990393203,0,0,5.460689224721136
20,21,female,3,45,45,right,same,valid,anti,2,1.6894405774291954,1,f,1,same,0.6553494715226407,1,0,0,0,0.38742205295966414,0,0,5.711025196435003
20,21,female,4,75,75,left,same,valid,anti,2,1.0414725407663354,1,j,0,change,0.6268751070456346,1,0,0,0,0.38748748324906046,0,0,4.327851942798588
20,21,female,5,165,165,left,same,valid,clock,1,1.409456344845239,0,j,0,change,0.732420901513251,1,0,0,0,0.3874352031634771,0,0,5.12645301752309
20,21,female,6,105,105,right,same,valid,clock,1,1.0014420322895603,0,j,0,change,0.6953934509419923,1,0,0,0,0.3874724086235801,0,0,4.720047520353546
20,21,female,7,135,185,left,change,valid,clock,1,2.041448806250628,0,f,0,same,0.7501092108541343,1,0,0,0,0.3874621450486302,0,0,5.935000779390975
20,21,female,8,45,45,left,same,valid,clock,2,1.9374861682281335,1,f,1,same,0.579214272014724,1,0,0,0,0.38740120507100073,0,0,5.750752608711991
20,21,female,9,165,95,left,change,catch,anti,1,1.1693958154119173,0,j,1,change,1.2778619177115615,0,0,0,0,0.38744803263216454,0,0,6.860528599770987
20,21,female,10,15,325,left,change,valid,anti,3,1.568315317550514,1,j,1,change,0.6220512267864251,1,0,0,0,0.387533027864265,0,0,5.159617835783138
20,21,female,11,15,325,right,change,valid,anti,2,1.169388759204594,1,j,1,change,0.6818583613803639,1,0,0,0,0.38746503167931223,0,0,4.657821710154167
20,21,female,12,135,185,right,change,valid,clock,3,1.521468191576787,1,j,1,change,0.6402812604446808,1,0,0,0,0.38752468870916346,0,0,5.263599076535684
20,21,female,13,135,75,right,same,catch,clock,1,1.5294692897805362,0,j,0,change,0.9599095137564291,0,0,0,0,0.38750768966383475,0,0,6.766968415771771
20,21,female,14,75,125,right,change,valid,clock,2,1.5043870368481294,1,f,0,same,1.0449316862850537,1,0,0,0,0.38749550166721747,0,0,5.881447690086134
20,21,female,15,15,15,right,same,valid,anti,1,2.3215372782669874,0,j,0,change,0.08679584658784734,1,0,0,0,0.3873951110745111,0,0,5.855083452486724
20,21,female,16,75,75,left,same,valid,clock,2,1.4014016836117662,1,j,0,change,1.1994071502485895,1,0,0,0,0.38751667029100645,0,0,5.403749476397934
20,21,female,17,15,15,left,same,valid,clock,2,1.5374011088515545,1,f,1,same,0.8876808874920243,1,0,0,0,0.387530141233583,0,0,5.81286808547884
20,21,female,18,165,115,right,change,valid,anti,3,1.377489798967872,1,j,1,change,1.060090024382589,1,0,0,0,0.3874743330434285,0,0,5.328766363185423
20,21,female,19,75,25,right,change,valid,anti,2,1.70540268174409,1,j,1,change,0.7642841701672296,1,0,0,0,0.38752308502625965,0,0,5.935793961298259
20,21,female,20,75,75,right,same,valid,anti,2,3.161414282149053,1,j,0,change,0.9451902642285859,1,0,0,0,0.3874182041181484,0,0,6.829997029977676
20,21,female,21,15,15,left,same,valid,anti,1,1.3934230369795841,0,j,0,change,0.7665678156099602,1,0,0,0,0.3874355239004217,0,0,4.964020396289925
20,21,female,22,135,85,left,change,valid,anti,3,1.1454342165779963,1,j,1,change,0.673104173361935,1,0,0,0,0.38747625746327685,0,0,4.9305075786887755
20,21,female,23,15,185,right,same,catch,anti,3,2.5054422606554,1,j,0,change,0.8318322854865983,0,0,0,0,0.3874063368602947,0,0,7.9369572733776295
20,21,female,24,15,65,left,change,valid,clock,1,1.5284217636544781,0,f,0,same,1.3747058042445133,1,0,0,0,0.38746310725946387,0,0,6.1777843635718455
20,21,female,25,105,105,left,same,valid,clock,2,1.089419472953523,1,j,0,change,0.7912892397325777,1,0,0,0,0.3873777912904188,0,0,5.230256890868986
20,21,female,26,135,85,right,change,valid,anti,1,1.9693879252881743,0,j,1,change,0.7829969125887146,1,0,0,0,0.38745605105032155,0,0,5.851618533706642
20,21,female,27,105,105,left,same,valid,anti,2,1.2494767180414783,1,j,0,change,0.5553777605000505,1,0,0,0,0.3874974260888848,0,0,4.664617159029149
20,21,female,28,165,215,right,change,valid,clock,1,1.4014100227668678,0,j,1,change,0.6495765313084121,1,0,0,0,0.3875115385035315,0,0,5.094974953668498
20,21,female,29,45,95,right,change,valid,clock,2,2.6894258235388406,1,j,1,change,0.7403357215389406,1,0,0,0,0.38743424095446244,0,0,6.328276277477926
20,21,female,30,75,75,right,same,valid,clock,1,3.3374378011303634,0,j,0,change,0.8770821425987378,1,0,0,0,0.3875019164006517,0,0,7.209070626866378
20,21,female,31,105,135,left,change,catch,clock,1,1.0974972272306331,0,j,1,change,0.6959217043186072,0,0,0,0,0.38749325651042454,0,0,6.189493178249904
20,21,female,32,45,95,left,change,valid,clock,2,1.6643987373245182,1,j,1,change,0.546705681081221,1,0,0,0,0.38744803263216454,0,0,5.150297868192865
20,21,female,33,105,105,right,change,catch,anti,1,1.8654474181003025,0,j,1,change,0.8378537966564181,0,0,0,0,0.3874089027522132,0,0,7.12488429422956
20,21,female,34,105,155,left,change,valid,clock,2,1.144188475160263,1,j,1,change,0.7187944019897259,1,0,0,0,0.38743424095446244,0,0,5.101689897626784
20,21,female,35,15,65,right,change,valid,clock,3,1.4974575200249092,1,j,1,change,0.7033063465460145,1,0,0,0,0.38745669252421067,0,0,5.430978099455388
20,21,female,36,105,105,right,same,valid,anti,2,2.6654648661788087,1,j,0,change,0.9454523061285727,1,0,0,0,0.387479785567848,0,0,6.4972836807228305
20,21,female,37,45,45,left,same,valid,anti,2,2.0412419310669065,1,j,0,change,1.7357155090958258,1,0,0,0,0.38746727683610516,0,0,7.0380233380874415
20,21,female,38,165,215,left,change,valid,clock,3,1.5454285074647487,1,j,1,change,0.6152461558085633,1,0,0,0,0.3875067274530011,0,0,5.105784422587021
20,21,female,39,165,165,right,same,valid,anti,2,1.8974636781695153,1,f,1,same,1.3130653385596815,1,0,0,0,0.3874573339962808,0,0,5.9794856794269435
20,21,female,40,165,45,right,change,catch,anti,2,1.393198521274826,1,j,1,change,0.9258075028010353,0,0,0,0,0.38749325651042454,0,0,7.0628085888165515
20,21,female,41,75,125,left,change,valid,clock,2,1.520264466669687,1,j,1,change,0.6559601542357996,1,0,0,0,0.3874829929354746,0,0,5.670918673355118
20,21,female,42,105,215,right,same,catch,clock,3,1.4174253693763603,1,j,0,change,0.7256062084379664,0,0,0,0,0.3874271847453201,0,0,6.751376441630782
20,21,female,43,45,355,right,change,valid,anti,1,1.3845197063856176,0,j,1,change,1.0204889823726262,1,0,0,0,0.38749806756095495,0,0,5.586631308649885
20,21,female,44,105,155,right,change,valid,clock,1,1.1614328848791047,0,j,1,change,0.8537049260667118,1,0,0,0,0.3874659938883269,0,0,5.543730206536566
20,21,female,45,105,55,right,change,valid,anti,1,0.4654842386771634,0,j,1,change,1.7029124818545824,1,0,0,0,0.3874377690572146,0,0,5.101315597876237
20,21,female,46,15,45,left,same,catch,clock,1,2.145451215625144,0,j,0,change,1.6973409643014747,0,0,0,0,0.3873947903375665,0,0,8.15476605142976
20,21,female,47,165,165,left,same,valid,anti,2,1.2564206680162897,1,f,1,same,0.5581925459500781,1,0,0,0,0.38745284368451394,0,0,5.086586084773444
20,21,female,48,45,45,right,same,valid,clock,1,1.0250562732562685,0,j,0,change,0.8565424838234321,1,0,0,0,0.38751250071254617,0,0,4.918787858960059
20,21,female,49,15,75,left,change,catch,anti,2,1.0974337213592662,1,j,1,change,0.7560380291124602,0,0,0,0,0.3875327071255015,0,0,6.517081796202547
20,21,female,50,135,135,right,same,valid,anti,1,1.598145115403895,0,j,0,change,0.7033284773788182,1,0,0,0,0.3874733708325948,0,0,5.5622264516714495
20,21,female,51,45,355,left,change,valid,anti,2,1.617448013388639,1,f,0,same,0.8765400975426019,1,0,0,0,0.3874278262210282,0,0,5.479192205326399
20,21,female,52,165,165,right,same,valid,clock,2,1.097301898567821,1,f,1,same,0.7006766261820303,1,0,0,0,0.38750448229620815,0,0,4.529455498101015
20,21,female,53,75,25,left,change,valid,anti,2,1.2974050474986143,1,f,0,same,0.7396980969406286,1,0,0,0,0.38750127492858155,0,0,5.01329068817904
20,21,female,54,165,115,left,change,valid,anti,3,1.3214667161882971,1,j,1,change,0.7083274798878847,1,0,0,0,0.38743007137600216,0,0,4.940367666917155
20,21,female,55,15,15,right,same,valid,clock,2,1.489416971206083,1,j,0,change,0.9000193083502381,1,0,0,0,0.387479785567848,0,0,5.35354455770721
20,21,female,56,105,55,left,change,valid,anti,1,1.4894698927655554,0,f,0,same,1.0300074859951565,1,0,0,0,0.3874201285379968,0,0,5.321565823835044
20,21,female,57,135,135,left,same,valid,clock,3,2.537356205710239,1,f,1,same,0.39958984188342583,1,0,0,0,0.38741082717388053,0,0,6.336989090461429
20,21,female,58,165,165,left,change,catch,clock,1,0.9694482237937336,0,j,1,change,0.6077139746903413,0,0,0,0,0.3874445045275934,0,0,6.002426373281196
20,21,female,1,105,105,right,same,valid,anti,2,1.7043224404733337,1,j,0,change,0.612416616471819,1,0,0,0,0.3874894076689088,0,0,5.321254067743212
20,21,female,2,165,45,right,change,catch,anti,1,0.9614682942119543,0,j,1,change,0.6895223652918503,0,0,0,0,0.38743808979415917,0,0,6.018356724662226
20,21,female,3,15,15,right,same,valid,clock,3,1.5041811238734226,1,f,1,same,0.6678059234945977,1,0,0,0,0.38752565091999713,0,0,5.522532075276104
20,21,female,4,15,325,right,change,valid,anti,1,1.24946453004668,0,j,1,change,0.6159039868216496,1,0,0,0,0.3874820307264599,0,0,4.910855077680026
20,21,female,5,165,165,left,same,valid,clock,2,1.2334802948989818,1,f,1,same,0.5165859372355044,1,0,0,0,0.38743584463736624,0,0,4.842907003670916
20,21,female,6,105,135,left,change,catch,clock,1,0.8014556315283698,0,j,1,change,0.5584314948064275,0,0,0,0,0.3874361653761298,0,0,5.908985182604738
20,21,female,7,135,185,left,change,valid,clock,2,1.5444650143599574,1,j,1,change,0.5269980133580248,1,0,0,0,0.38745765473322535,0,0,5.164144713842688
20,21,female,8,105,55,right,change,valid,anti,3,1.4094371006431174,1,j,1,change,0.6836493552218599,1,0,0,0,0.38747721967411053,0,0,5.174967974438914
20,21,female,9,165,165,right,same,valid,anti,3,1.5533798914748331,1,j,0,change,0.7863126887932594,1,0,0,0,0.3874791440957779,0,0,5.218291807550486
20,21,female,10,165,115,right,change,valid,anti,1,1.193472879465844,0,j,1,change,0.6568046540196519,1,0,0,0,0.3874563717872661,0,0,4.678747215202748
20,21,female,11,45,45,right,same,valid,clock,3,1.5454679580816446,1,f,1,same,1.1175833642846555,1,0,0,0,0.38741146864776965,0,0,5.709827244787448
20,21,female,12,135,85,right,change,valid,anti,3,1.4174231242195674,1,j,1,change,0.9401409060556034,1,0,0,0,0.3874983882978995,0,0,5.662634043894286
20,21,female,13,45,355,right,change,valid,anti,4,1.9293920563777647,1,j,1,change,0.7331480116554303,1,0,0,0,0.38749646387805115,0,0,5.390874463008004
20,21,female,14,75,75,right,same,valid,clock,3,1.7853665154707414,1,j,0,change,1.1594494490054785,1,0,0,0,0.38758851531565597,0,0,5.943505434242979
20,21,female,15,75,25,left,change,valid,anti,4,1.777479278804094,1,j,1,change,0.7789844962280768,1,0,0,0,0.387487803986005,0,0,6.030689692997839
20,21,female,16,45,45,right,same,valid,anti,2,1.71346953097418,1,j,0,change,0.7838240925866558,1,0,0,0,0.3874627865225193,0,0,5.295684294997045
20,21,female,17,75,75,left,same,valid,clock,2,2.6334816419930576,1,j,0,change,0.4579126069402264,1,0,0,0,0.38744161789873033,0,0,5.926194311285144
20,21,female,18,165,215,right,change,valid,clock,2,2.097469002399521,1,j,1,change,0.6277112676743855,1,0,0,0,0.38740441243862733,0,0,5.620827616201495
20,21,female,19,165,165,left,same,valid,anti,1,1.8974787527949957,0,j,0,change,0.88903150981605,1,0,0,0,0.38751410439545,0,0,5.947887339303634
20,21,female,20,105,155,left,change,valid,clock,1,1.0094415268085868,0,j,1,change,0.5697005794427241,1,0,0,0,0.387413393067618,0,0,4.657997473877913
20,21,female,21,15,45,left,same,catch,clock,2,1.2733135502930963,1,f,1,same,0.7088323194839177,0,0,0,0,0.3874547681043623,0,0,6.564170757665124
20,21,female,22,165,165,right,same,valid,clock,1,0.9842197534053412,0,j,0,change,0.7435674647240376,1,0,0,0,0.38750127492858155,0,0,5.06377528928715
20,21,female,23,135,135,right,same,valid,anti,2,1.5454628262941696,1,j,0,change,0.5267112747296778,1,0,0,0,0.3874377690572146,0,0,5.096272333699744
20,21,female,24,15,15,left,same,valid,clock,2,2.0735045169349178,1,f,1,same,0.7006981155445828,1,0,0,0,0.38747625746509584,0,0,5.912551774923486
20,21,female,25,135,185,right,change,valid,clock,1,3.32143335956971,0,j,1,change,0.821558767627721,1,0,0,0,0.38741788338120386,0,0,7.4400379495691595
20,21,female,26,15,75,left,change,catch,anti,1,0.9854257234692341,0,j,1,change,1.1811928326897032,0,0,0,0,0.3874441837924678,0,0,6.4390436657395185
20,21,female,27,75,125,left,change,valid,clock,2,1.3683651600367739,1,f,0,same,0.6657368509168009,1,0,0,0,0.3874563717872661,0,0,5.617145879399686
20,21,female,28,105,155,right,change,valid,clock,1,0.6255013916761527,0,j,1,change,0.7058443362057005,1,0,0,0,0.3875031993484299,0,0,4.4397374192631105
20,21,female,29,165,165,left,change,catch,clock,2,1.5374931602909783,1,f,0,same,0.6247903183684684,0,0,0,0,0.38746888051900896,0,0,6.797987505380661
20,21,female,30,105,215,right,same,catch,clock,1,0.9117165765073878,0,j,0,change,0.6933147562631348,0,0,0,0,0.38751667029100645,0,0,6.517662329664745
20,21,female,31,15,65,right,change,valid,clock,1,2.3204063605935517,0,j,1,change,0.6489822061666928,1,0,0,0,0.3874701634667872,0,0,6.162852144861972
20,21,female,32,45,95,right,change,valid,clock,3,1.3134935220805346,1,j,1,change,0.828554035477282,1,0,0,0,0.38744065568971564,0,0,5.462722374784789
20,21,female,33,15,325,left,change,valid,anti,2,1.273473597913835,1,j,1,change,0.6206031004967372,1,0,0,0,0.387455730313377,0,0,5.018242221653054
20,21,female,34,135,85,left,change,valid,anti,3,1.4174705932546203,1,j,1,change,0.6292524076106929,1,0,0,0,0.38748684177699033,0,0,5.113425012716107
20,21,female,35,15,15,left,same,valid,anti,3,1.7774982022692711,1,f,1,same,0.620477050966656,1,0,0,0,0.38747882335701433,0,0,5.458993489684872
20,21,female,36,15,185,right,same,catch,anti,1,1.217463023867822,0,j,0,change,0.7597608202140691,0,0,0,0,0.3874377690590336,0,0,6.407971333834212
20,21,female,37,75,75,right,same,valid,anti,1,2.144476496734569,0,j,0,change,0.5639359783835971,1,0,0,0,0.3874679183099943,0,0,5.99251657086279
20,21,female,38,165,95,left,change,catch,anti,1,1.0013964876761747,0,j,1,change,0.6270191178318782,0,0,0,0,0.38742846769309836,0,0,6.267513347458589
20,21,female,39,165,115,left,change,valid,anti,2,1.088205484469654,1,j,1,change,0.6582976834470173,1,0,0,0,0.38751025555575325,0,0,4.623989759518736
20,21,female,40,15,65,left,change,valid,clock,3,1.0654280456037668,1,j,1,change,0.5226879533220199,1,0,0,0,0.38753527301923896,0,0,4.7090279688836745
20,21,female,41,75,25,right,change,valid,anti,2,2.097417043050882,1,j,1,change,0.5322250596727827,1,0,0,0,0.38739928065115237,0,0,5.796131401984894
20,21,female,42,135,75,right,same,catch,clock,1,1.1854618384240894,0,j,0,change,0.7155979398448835,0,0,0,0,0.3874223736947897,0,0,6.610880929059931
20,21,female,43,15,15,right,same,valid,anti,2,1.2164616838290385,1,f,1,same,0.9577929721453984,1,0,0,0,0.3875099348188087,0,0,5.48021663840882
20,21,female,44,105,105,right,same,valid,clock,1,1.2975035136714723,0,j,0,change,0.6925619871817617,1,0,0,0,0.387463748733353,0,0,4.931343097841818
20,21,female,45,105,105,left,same,valid,anti,3,1.273502784955781,1,f,1,same,0.5659097921561624,1,0,0,0,0.38749421871943923,0,0,4.664513240331871
20,21,female,46,75,125,right,change,valid,clock,2,1.3534624491076102,1,j,1,change,0.7022915355664736,1,0,0,0,0.387442580109564,0,0,5.086958139369017
20,21,female,47,135,135,left,same,valid,clock,3,1.9134543280524667,1,f,1,same,0.5027285072719678,1,0,0,0,0.38743007137782115,0,0,5.359859222238811
20,21,female,48,135,135,right,same,valid,clock,1,1.6174076005609095,0,j,0,change,0.9203177731124015,1,0,0,0,0.3875253301812336,0,0,5.496033128254567
20,21,female,49,105,105,right,change,catch,anti,3,1.7294332389719784,1,j,1,change,0.9488886793405982,0,0,0,0,0.3875064067160565,0,0,7.0631857751977805
20,21,female,50,135,135,left,same,valid,anti,2,2.1365068307295587,1,f,1,same,0.6623720019942994,1,0,0,0,0.38745669252421067,0,0,6.3755438892912935
20,21,female,51,45,45,left,same,valid,anti,1,0.49745367118521244,0,f,1,same,3.097643162438544,1,0,0,0,0.38744771189703897,0,0,6.8250140643049235
20,21,female,52,165,215,left,change,valid,clock,3,2.3614596984680247,1,j,1,change,0.7732571006308717,1,0,0,0,0.3874775404110551,0,0,6.390903650048131
20,21,female,53,45,95,left,change,valid,clock,3,2.3774426506697637,1,j,1,change,0.6971600687902537,1,0,0,0,0.3874239773795125,0,0,6.1132216656369565
20,21,female,54,105,105,left,same,valid,clock,3,2.265496234229431,1,f,1,same,0.6609537042204465,1,0,0,0,0.3874297506390576,0,0,6.1969092526778695
20,21,female,55,75,75,left,same,valid,anti,2,1.8014302933261206,1,f,1,same,1.3186984375624888,1,0,0,0,0.38747305009746924,0,0,6.3621229820055305
20,21,female,56,105,55,left,change,valid,anti,2,1.7774539406036638,1,j,1,change,0.6459781860539806,1,0,0,0,0.3874823514615855,0,0,5.620406168151021
20,21,female,57,45,45,left,same,valid,clock,3,1.6492362296503416,1,f,1,same,0.9330208716219204,1,0,0,0,0.3874457874771906,0,0,5.242816620064332
20,21,female,58,45,355,left,change,valid,anti,2,3.8254072875224665,1,j,1,change,0.8804537269934372,1,0,0,0,0.38746727683610516,0,0,7.392368133907439
20,21,female,1,45,95,right,change,valid,clock,1,1.1841189137794572,0,j,1,change,1.3650048014278582,1,0,0,0,0.3874807477786817,0,0,5.76875684371953
20,21,female,2,165,165,left,same,valid,clock,4,2.0975106981732097,1,f,1,same,0.4068583774187573,1,0,0,0,0.38744161789873033,0,0,5.952920019168232
20,21,female,3,165,165,left,same,valid,anti,3,2.2974829865215725,1,f,1,same,0.6042214725530357,1,0,0,0,0.3874207700118859,0,0,5.8962949135639064
20,21,female,4,105,105,right,change,catch,anti,2,1.5454974658587162,1,j,1,change,0.5342582097382547,0,0,0,0,0.38750865187284944,0,0,6.798033691467936
20,21,female,5,105,105,left,same,valid,clock,2,1.368453362634682,1,f,1,same,0.5136078967952926,1,0,0,0,0.3874926150365354,0,0,5.147276207557297
20,21,female,6,165,115,right,change,valid,anti,1,0.9294161116322357,0,j,1,change,0.4852223763900838,1,0,0,0,0.3875025578763598,0,0,4.38177067196375
20,21,female,7,45,45,right,same,valid,clock,2,1.3934971271610266,1,j,0,change,0.4127313874887477,1,0,0,0,0.3875339900750987,0,0,4.4933107149790885
20,21,female,8,15,325,right,change,valid,anti,2,2.0094533940682595,1,f,0,same,0.9637349406093563,1,0,0,0,0.3874679183099943,0,0,5.974984460304768
20,21,female,9,165,45,right,change,catch,anti,1,0.8014498582651868,0,j,1,change,0.4819178259695036,0,0,0,0,0.38748587956615665,0,0,6.080420242078617
20,21,female,10,45,355,left,change,valid,anti,2,1.4080643474826502,1,j,1,change,0.8480792040081724,1,0,0,0,0.387426543271431,0,0,5.4737422469916055
20,21,female,11,135,185,right,change,valid,clock,1,0.849475050212277,0,j,1,change,0.48975855581193173,1,0,0,0,0.3873781120291824,0,0,4.164673608693192
20,21,female,12,165,215,left,change,valid,clock,1,1.3774654229782755,0,f,0,same,0.8491225605557702,1,0,0,0,0.3875195569216885,0,0,5.062224527249782
20,21,female,13,15,15,left,same,valid,anti,2,1.089323893409528,1,f,1,same,0.7078713922746829,1,0,0,0,0.3875080103989603,0,0,4.70211865847341
20,21,female,14,45,355,right,change,valid,anti,1,1.3293940449457295,0,j,1,change,0.9552424737539695,1,0,0,0,0.38754168775449216,0,0,5.214148851346181
20,21,female,15,105,155,right,change,valid,clock,1,3.481430306157563,0,j,1,change,0.9053743286167446,1,0,0,0,0.38749742608706583,0,0,7.3543560216076
20,21,female,16,15,45,left,same,catch,clock,2,1.3534133763896534,1,j,0,change,0.7911625487286074,0,0,0,0,0.3874371275833255,0,0,6.579771070959396
20,21,female,17,165,95,left,change,catch,anti,2,1.4320798300868773,1,j,1,change,0.6024445911280054,0,0,0,0,0.38748363440936373,0,0,6.8135490095337445
20,21,female,18,165,215,right,change,valid,clock,2,1.0241915670612798,1,j,1,change,0.9068279074290331,1,0,0,0,0.38745989989183727,0,0,5.345502725942424
20,21,female,19,135,75,right,same,catch,clock,1,0.8015079116121342,0,j,0,change,0.5816935668553924,0,0,0,0,0.387434561689588,0,0,5.955241511543136
20,21,female,20,75,125,right,change,valid,clock,2,1.4402522016971488,1,f,0,same,0.7560328973249852,1,0,0,0,0.38741146864595066,0,0,5.56878070653147
20,21,female,21,75,125,left,change,valid,clock,3,1.6014515902443236,1,f,0,same,0.6465288910021627,1,0,0,0,0.387546178068078,0,0,4.950090479829669
20,21,female,22,105,215,right,same,catch,clock,1,0.7535311509127496,0,j,0,change,0.41332058084117307,0,0,0,0,0.3874515607367357,0,0,5.737286477546149
20,21,female,23,15,15,right,same,valid,anti,3,2.4484595336107304,1,j,0,change,0.40229589758382645,1,0,0,0,0.38744450452941237,0,0,6.293454854061565
20,21,female,24,15,185,right,same,catch,anti,2,1.4014918106295227,1,f,1,same,0.9746832885266485,0,0,0,0,0.38748331367241917,0,0,6.8760516155198275
20,21,female,25,15,15,left,same,valid,clock,3,1.472293799966792,1,f,1,same,0.5180135363716545,1,0,0,0,0.387455730315196,0,0,5.340860061927742
20,21,female,26,15,65,right,change,valid,clock,2,1.193461974417005,1,j,1,change,0.5873407782746654,1,0,0,0,0.3873453968826652,0,0,4.747802793102892
20,21,female,27,165,165,left,change,catch,clock,1,0.7853831937809446,0,j,1,change,0.5184818119832926,0,0,0,0,0.38745765473504434,0,0,5.784158941723945
20,21,female,28,15,65,left,change,valid,clock,1,2.1204802583342826,0,f,0,same,0.5851273741736804,1,0,0,0,0.3874983882978995,0,0,6.007087960761055
20,21,female,29,105,105,right,same,valid,clock,2,1.3774057659484242,1,j,0,change,0.6496586399080115,1,0,0,0,0.3874275054822647,0,0,5.215795513664489
20,21,female,30,135,185,left,change,valid,clock,3,1.305475104094512,1,j,1,change,0.5494024354193243,1,0,0,0,0.3874259017993609,0,0,5.020073949059224
20,21,female,31,105,55,left,change,valid,anti,3,1.2254593110192218,1,j,1,change,0.739612460238277,1,0,0,0,0.38742686401019455,0,0,4.994706240446249
20,21,female,32,135,85,left,change,valid,anti,2,1.4814290232097846,1,j,1,change,0.6521635936878738,1,0,0,0,0.3874191663271631,0,0,5.130254068384602
20,21,female,33,105,155,left,change,valid,clock,3,1.8015027798246592,1,j,1,change,0.36468887576120324,1,0,0,0,0.3874483533691091,0,0,5.124611026543789
20,21,female,34,105,105,right,same,valid,anti,2,1.3211212827409327,1,j,0,change,0.7380507931484317,1,0,0,0,0.38745348515658407,0,0,5.094360422113823
20,21,female,35,135,135,left,same,valid,clock,1,0.777449450290078,0,j,0,change,0.5288367969696992,1,0,0,0,0.38746086210085195,0,0,4.2558641898103815
20,21,female,36,135,85,right,change,valid,anti,2,1.0894367927357962,1,f,0,same,0.7486732725592447,1,0,0,0,0.3874967846149957,0,0,4.546614912589575
20,21,female,37,45,95,left,change,valid,clock,2,1.9134408571117092,1,j,1,change,0.7298020861999248,1,0,0,0,0.3875195569198695,0,0,5.606302091653561
20,21,female,38,135,135,left,same,valid,anti,3,1.5214829454671417,1,f,1,same,0.46251004707664833,1,0,0,0,0.3874461082123162,0,0,4.876708805057206
20,21,female,39,75,75,left,same,valid,anti,1,0.7452981600617932,0,j,0,change,0.7980234278929856,1,0,0,0,0.3874727293605247,0,0,4.560454060558186
20,21,female,40,75,25,left,change,valid,anti,2,1.3694569478320773,1,j,1,change,0.9488040048472612,1,0,0,0,0.3874595791548927,0,0,5.2760542455598625
20,21,female,41,15,15,right,same,valid,clock,1,1.1854634421088122,0,j,0,change,0.7236131504614605,1,0,0,0,0.38752308502444066,0,0,4.713978860885618
20,21,female,42,45,45,left,same,valid,anti,4,1.6494132763182279,1,j,0,change,0.7113452916819369,1,0,0,0,0.3875625356413366,0,0,5.577703922801447
20,21,female,43,135,135,right,same,valid,clock,2,2.041453296564214,1,j,0,change,0.7277990853872325,1,0,0,0,0.38749165282752074,0,0,5.575298397407096
20,21,female,44,165,115,left,change,valid,anti,3,1.353464052790514,1,j,1,change,0.5512671987053182,1,0,0,0,0.387479785567848,0,0,5.268746900881524
20,21,female,45,75,75,right,same,valid,anti,1,0.7614921570257138,0,j,0,change,0.4635883639275562,1,0,0,0,0.38749710535194026,0,0,4.09056065420009
20,21,female,46,75,75,left,same,valid,clock,2,1.2734726357048203,1,f,1,same,0.5544303042315732,1,0,0,0,0.38741660043342563,0,0,4.610111160933229
20,21,female,47,165,165,right,same,valid,anti,1,0.8734539688284713,0,j,0,change,0.6219123477876565,1,0,0,0,0.38755547943401325,0,0,4.5826535318556125
20,21,female,48,135,135,right,same,valid,anti,1,1.1214745421657426,0,j,0,change,0.7985843964142987,1,0,0,0,0.38751089702964236,0,0,4.72286743758923
20,21,female,49,105,105,left,same,valid,anti,3,1.2494177024855162,1,f,1,same,0.46962847782924655,1,0,0,0,0.38739703549435944,0,0,4.842276114542983
20,21,female,50,75,75,right,same,valid,clock,1,0.953435122337396,0,j,0,change,0.6080270137299522,1,0,0,0,0.38748203072464094,0,0,4.685156176330565
20,21,female,51,105,135,left,change,catch,clock,2,1.6414711936740787,1,f,0,same,0.49846046374659636,0,0,0,0,0.38752372650014877,0,0,6.3299732954601495
20,21,female,52,15,325,left,change,valid,anti,2,1.0323209599519032,1,f,0,same,0.6696395753187971,1,0,0,0,0.38751570808017277,0,0,5.157152011885046
20,21,female,53,45,45,right,same,valid,anti,3,1.417470913989746,1,f,1,same,0.7068771084432228,1,0,0,0,0.38745605105214054,0,0,5.3677118193409115
20,21,female,54,45,45,left,same,valid,clock,1,2.8494500327469723,0,f,1,same,0.7600135607481207,1,0,0,0,0.38744771189522,0,0,6.511990100781986
20,21,female,55,165,165,right,same,valid,clock,1,1.473436264161137,0,j,0,change,0.73344661754345,1,0,0,0,0.38744642894926073,0,0,5.029682900434636
20,21,female,56,15,75,left,change,catch,anti,1,2.665359664535572,0,j,1,change,0.8259884624585538,0,0,0,0,0.3874249395885272,0,0,7.90482971766869
20,21,female,57,105,55,right,change,valid,anti,2,1.5042462334276934,1,j,1,change,0.5003608288097894,1,0,0,0,0.38745348515658407,0,0,5.174576354904275
20,21,female,58,75,25,right,change,valid,anti,2,1.913477421097923,1,j,1,change,0.6050525013943115,1,0,0,0,0.38753366933633515,0,0,5.585504881291854
20,21,female,1,75,125,right,change,valid,clock,1,1.2240775772315828,0,j,1,change,0.5446555319704203,1,0,0,0,0.38743167506072496,0,0,4.393436507920342
20,21,female,2,135,135,left,same,valid,clock,1,1.1054668932338245,0,f,1,same,0.7015676327901019,1,0,0,0,0.38754008406976936,0,0,4.859182147023603
20,21,female,3,105,105,right,same,valid,clock,2,1.1694240402430296,1,f,1,same,0.5776769809181133,1,0,0,0,0.38752725460290094,0,0,4.775528878812111
20,21,female,4,105,155,right,change,valid,clock,2,2.4414575302889716,1,j,1,change,0.8535670092769578,1,0,0,0,0.38750384082231903,0,0,6.384437597784199
20,21,female,5,135,185,right,change,valid,clock,1,1.5214284202229464,0,j,1,change,0.8136247033980908,1,0,0,0,0.38747689893716597,0,0,5.4193103390753095
20,21,female,6,15,325,right,change,valid,anti,2,1.361444944579489,1,j,1,change,0.39483107117666805,1,0,0,0,0.38746246578557475,0,0,4.588655157349422
20,21,female,7,105,105,right,change,catch,anti,1,0.6974715041469608,0,j,1,change,0.4790485152789188,0,0,0,0,0.38738228160582366,0,0,5.659312173689614
20,21,female,8,75,75,right,same,valid,anti,1,5.456062918279713,0,j,0,change,0.4599521717409516,1,0,0,0,0.38744867410605366,0,0,9.000527611902726
20,21,female,9,75,75,left,same,valid,anti,3,1.697418903324433,1,f,1,same,0.7632004007919022,1,0,0,0,0.38743744832027005,0,0,5.550251746251888
20,21,female,10,165,45,right,change,catch,anti,1,1.4654383733268332,0,j,1,change,0.7409027840585622,0,0,0,0,0.38746246578557475,0,0,6.579696980776134
20,21,female,11,15,15,left,same,valid,anti,2,1.2084769432003668,1,f,1,same,0.44057486283600156,1,0,0,0,0.3874525229457504,0,0,5.018445568734023
20,21,female,12,45,95,left,change,valid,clock,1,3.017415683127183,0,f,0,same,0.37394180937735655,1,0,0,0,0.38740569538640557,0,0,6.640604563055604
20,21,female,13,165,165,left,same,valid,clock,2,1.2894270423403213,1,j,0,change,1.059813549329192,1,0,0,0,0.38737265950476285,0,0,5.450417310545163
20,21,female,14,165,95,left,change,catch,anti,3,1.5774569555287599,1,j,1,change,0.6513870900907932,0,0,0,0,0.3873890170780214,0,0,7.078816558481776
20,21,female,15,165,165,left,same,valid,anti,3,1.6404381006996118,1,f,1,same,0.5071097708587331,1,0,0,0,0.38745508884130686,0,0,5.577052506525433
20,21,female,16,75,75,left,same,valid,clock,2,4.825470151919944,1,j,0,change,0.4811843010920711,1,0,0,0,0.3874740123083029,0,0,8.021889639625442
20,21,female,17,165,215,left,change,valid,clock,2,2.745437680534451,1,j,1,change,0.7198319852759596,1,0,0,0,0.38743007137782115,0,0,6.37867363820078
20,21,female,18,45,355,right,change,valid,anti,3,1.401400400665807,1,f,0,same,0.9258299543726025,1,0,0,0,0.3875567623799725,0,0,5.421127954065014
20,21,female,19,165,215,right,change,valid,clock,4,2.353458921003039,1,j,1,change,0.6045592083191877,1,0,0,0,0.38743263727155863,0,0,5.758547473204089
20,21,female,20,15,325,left,change,valid,anti,2,1.4574648584803072,1,j,1,change,1.3991908454045188,1,0,0,0,0.3875339900750987,0,0,5.769117672529319
20,21,female,21,75,75,right,same,valid,clock,3,1.609431519824284,1,f,1,same,0.6767615341723285,1,0,0,0,0.387471767149691,0,0,5.492164401945047
20,21,female,22,15,75,left,change,catch,anti,1,1.3054645197844366,0,j,1,change,0.7932110941546853,0,0,0,0,0.387508972609794,0,0,6.361274954117107
20,21,female,23,105,105,left,same,valid,anti,2,1.432219350559535,1,j,0,change,1.0432731567088922,1,0,0,0,0.3875185947108548,0,0,5.745188788840096
20,21,female,24,105,105,right,same,valid,anti,2,1.105418461989757,1,j,0,change,0.8801451782674121,1,0,0,0,0.3874137138027436,0,0,5.338151119594841
20,21,female,25,135,135,right,same,valid,clock,2,1.1774758148476394,1,f,1,same,1.0155053752259846,1,0,0,0,0.3874791440957779,0,0,5.193673019177368
20,21,female,26,165,165,left,change,catch,clock,2,1.7534612303079484,1,f,0,same,0.6428801900801773,0,0,0,0,0.38745444736741774,0,0,7.281682212775195
20,21,female,27,15,65,left,change,valid,clock,1,0.9523728423228022,0,j,1,change,0.9112415654271899,1,0,0,0,0.387458616945878,0,0,5.33567439064791
20,21,female,28,135,135,right,same,valid,anti,3,3.385466200443261,1,j,0,change,0.7526253904161422,1,0,0,0,0.3875670259567414,0,0,7.159493710672905
20,21,female,29,75,125,left,change,valid,clock,2,1.3774561216141592,1,j,1,change,1.262888323964944,1,0,0,0,0.3874515607367357,0,0,5.717973315988274
20,21,female,30,135,135,left,same,valid,anti,3,1.3534954849892529,1,f,1,same,0.5730843518322217,1,0,0,0,0.3875487439636345,0,0,5.190964397581411
20,21,female,31,45,45,right,same,valid,clock,2,1.9134690819428215,1,j,0,change,0.7199577140709152,1,0,0,0,0.38758049689749896,0,0,5.642324032609395
20,21,female,32,45,45,right,same,valid,anti,3,1.4733878329170693,1,j,0,change,0.5494585643446044,1,0,0,0,0.3875388011256291,0,0,4.817927386489828
20,21,female,33,15,45,left,same,catch,clock,1,0.9053101812733075,0,j,0,change,1.3854960289590963,0,0,0,0,0.38751667029100645,0,0,6.595352781523616
20,21,female,34,15,15,right,same,valid,anti,2,2.151797953827554,1,j,0,change,0.5385932872377452,1,0,0,0,0.38757568584696855,0,0,6.283755134194507
20,21,female,35,105,155,left,change,valid,clock,3,1.577455351845856,1,f,0,same,0.5624939460940368,1,0,0,0,0.38748844545989414,0,0,5.251979426664548
20,21,female,36,105,105,left,same,valid,clock,3,1.841451821175724,1,f,1,same,0.7304175799654331,1,0,0,0,0.3874759367281513,0,0,5.352929384680465
20,21,female,37,75,25,left,change,valid,anti,2,1.3934288102409482,1,j,1,change,0.8033717126891133,1,0,0,0,0.38747144641274645,0,0,4.9927234460465115
20,21,female,38,15,185,right,same,catch,anti,1,0.9614679734768288,0,j,0,change,0.6453697484976146,0,0,0,0,0.3875153873450472,0,0,5.940512319177287
20,21,female,39,15,15,right,same,valid,clock,2,1.6803685393206251,1,j,0,change,0.7874121742679563,1,0,0,0,0.38742846769309836,0,0,5.734717376424669
20,21,female,40,105,55,right,change,valid,anti,2,1.4014446623332333,1,j,1,change,0.6527739556640881,1,0,0,0,0.3874101856999914,0,0,4.7997910079539
20,21,female,41,165,115,left,change,valid,anti,3,1.5214187981237046,1,j,1,change,0.8062371745418204,1,0,0,0,0.3874182041181484,0,0,5.225293810872245
20,21,female,42,135,75,right,same,catch,clock,1,1.345496311207171,0,j,0,change,0.5674050667421398,0,0,0,0,0.38753527302105795,0,0,6.049344061335432
20,21,female,43,105,135,left,change,catch,clock,2,2.7124643420957,1,f,0,same,0.8883926022717787,0,0,0,0,0.387487803986005,0,0,8.310675849999825
20,21,female,44,105,215,right,same,catch,clock,1,1.240282158505579,0,j,0,change,0.5914490949144238,0,0,0,0,0.3874387312680483,0,0,6.361435643213554
20,21,female,45,45,95,right,change,valid,clock,1,0.9523680312722718,0,j,1,change,0.7214212357212091,1,0,0,0,0.3874839551463083,0,0,4.7415153911933885
20,21,female,46,135,85,right,change,valid,anti,2,1.3454542946965375,1,f,0,same,0.8544538463065692,1,0,0,0,0.3875253301812336,0,0,5.17358720286029
20,21,female,47,165,115,right,change,valid,anti,3,1.793438175751362,1,j,1,change,0.7799784593225922,1,0,0,0,0.3874999919826223,0,0,5.4487972693750635
20,21,female,48,165,165,right,same,valid,anti,1,2.4335067877509573,0,f,1,same,0.9218210661147168,1,0,0,0,0.3874743330452475,0,0,6.035297396709211
20,21,female,49,45,45,left,same,valid,clock,3,1.2574489499402262,1,j,0,change,0.9301056955791864,1,0,0,0,0.38743648611125536,0,0,5.47696212291703
20,21,female,50,75,25,right,change,valid,anti,1,2.4574340677554574,0,j,1,change,0.6266204420917347,1,0,0,0,0.3874993505087332,0,0,6.040021848584729
20,21,female,51,45,355,left,change,valid,anti,1,2.145454743727896,0,f,0,same,1.1079137936685584,1,0,0,0,0.38742750548408367,0,0,6.281778113054315
20,21,female,52,135,85,left,change,valid,anti,3,1.553455906077943,1,j,1,change,0.8133924900139391,1,0,0,0,0.38749646387623216,0,0,5.000926608381633
20,21,female,53,105,55,left,change,valid,anti,3,1.3933864729933703,1,f,0,same,0.9050000288661977,1,0,0,0,0.3874377690590336,0,0,4.960050317175046
20,21,female,54,15,65,right,change,valid,clock,3,1.5134510565385426,1,j,1,change,0.9231078618340689,1,0,0,0,0.3874926150365354,0,0,5.1980546035028965
20,21,female,55,135,185,left,change,valid,clock,2,2.833478947803087,1,f,0,same,0.7467478900343849,1,0,0,0,0.38745605105214054,0,0,6.4260050766206405
20,21,female,56,45,45,left,same,valid,anti,2,1.8575107879805728,1,f,1,same,1.0643231076046504,1,0,0,0,0.38746503167749324,0,0,5.829724724502739
20,21,female,57,165,165,right,same,valid,clock,2,3.0414674089806795,1,j,0,change,1.1638842756256054,1,0,0,0,0.3874942187212582,0,0,7.488415631169119
20,21,female,58,15,15,left,same,valid,clock,1,0.7454745652576094,0,j,0,change,1.1815222293007537,1,0,0,0,0.38750929334491957,0,0,5.408266732354605
