subject,age,gender,ntrial,memory_ori,test_ori,cue,type,trial_type,which_change,pas,pas_rt,vis,test_key,test_acc,test,test_rt,contrast,fix_dur,cue_dur,jitter_dur,target_dur,mask_dur,retention_dur,trial_dur
22,24,female,1,15,325,right,change,valid,anti,2,2.5120135916258732,1,j,1,change,1.5686451545034288,0.5,0,0,0,0.38746559274750325,0,0,7.34512294238084
22,24,female,2,15,15,right,same,valid,clock,2,2.777366555028493,1,j,0,change,1.6039200051836815,0.4069419370673367,0,0,0,0.3874492350705623,0,0,7.462106637945908
22,24,female,3,165,215,left,change,valid,clock,2,2.025379417936165,1,f,0,same,1.8507082874411935,0.3461892688284379,0,0,0,0.3874989495807313,0,0,6.859643107548436
22,24,female,4,165,165,left,same,valid,anti,2,2.833232514444717,1,j,0,change,3.6345961032802734,0.2977447647674634,0,0,0,0.3874418580780912,0,0,9.594429344775563
22,24,female,5,15,15,left,same,valid,clock,2,4.417361974878077,1,j,0,change,0.7442634266062669,0.25592670972998877,0,0,0,0.38752845754788723,0,0,8.039487754514084
22,24,female,6,135,135,left,change,catch,clock,2,3.2494125669300047,1,f,0,same,1.4209513625301042,0,0,0,0,0.38741908562496974,0,0,9.418727680590564
22,24,female,7,45,45,left,same,valid,anti,2,3.072341348167356,1,j,0,change,1.1468733421816069,0.21928796852134014,0,0,0,0.3874813089478266,0,0,7.299386234276426
22,24,female,8,135,185,left,change,valid,clock,2,5.081378163206864,1,j,1,change,1.1709544095492674,0.18534516214727204,0,0,0,0.38748612002927985,0,0,9.789351921642265
22,24,female,9,165,75,left,change,catch,clock,2,3.4333613872850037,1,f,0,same,1.7625327073374137,0,0,0,0,0.38743961290674633,0,0,10.151373948698165
22,24,female,10,135,85,right,change,valid,anti,2,5.183683248647867,1,f,0,same,3.429826845963362,0.15488367948209586,0,0,0,0.38744891433088924,0,0,11.417823517978832
22,24,female,11,75,75,left,same,valid,clock,2,2.2174913609014766,1,f,1,same,1.0410199236512199,0.12473050325576701,0,0,0,0.3875098546996014,0,0,6.470193103988095
22,24,female,12,165,215,right,change,valid,clock,1,3.5053736574673167,0,j,1,change,1.1237580192710084,0.09631031933527462,0,0,0,0.3875162694739629,0,0,7.738359908678831
22,24,female,13,135,185,right,change,valid,clock,2,2.625405012890951,1,f,0,same,1.6801692346080017,0.15443811874716074,0,0,0,0.3874825919028808,0,0,7.61550380684821
22,24,female,14,75,125,left,change,valid,clock,2,2.873382594533723,1,f,0,same,1.7246322890296142,0.13810278298030004,0,0,0,0.3875056850947658,0,0,7.673559129156274
22,24,female,15,45,95,right,change,valid,clock,1,1.8733931789120106,0,j,1,change,1.145275742333979,0.12382011222810324,0,0,0,0.3874415373393276,0,0,6.165075267768771
22,24,female,16,165,165,right,same,valid,anti,2,3.0893433899909724,1,j,0,change,3.2486864143393177,0.15633324001862403,0,0,0,0.3874527631969613,0,0,9.561585694023961
22,24,female,17,105,55,left,change,valid,anti,2,3.9613118472561837,1,j,1,change,1.9563182652391333,0.14579874316221753,0,0,0,0.3874113878946446,0,0,9.526171321976108
22,24,female,18,15,65,left,change,valid,clock,2,2.4254275929006326,1,f,0,same,0.6557125821327645,0.13614475743622106,0,0,0,0.3873982376053391,0,0,6.160920738392633
22,24,female,19,75,25,right,change,valid,anti,1,2.3612503295589704,0,j,1,change,1.6870872492872877,0.12717741915704311,0,0,0,0.38747874303771823,0,0,7.1496034706497085
22,24,female,20,165,165,right,same,valid,clock,2,2.0014715495080964,1,f,1,same,1.4421970991097623,0.14998918401014227,0,0,0,0.38743576404158375,0,0,6.491614605417453
22,24,female,21,135,135,right,same,valid,anti,1,3.6573868385485184,0,j,0,change,1.8086517360625294,0.14241411512481023,0,0,0,0.3874386506904557,0,0,8.456706038420634
22,24,female,22,75,45,right,change,catch,clock,2,2.865395878250638,1,f,0,same,1.749222048097181,0,0,0,0,0.3875204390787985,0,0,9.496050422701046
22,24,female,23,105,155,left,change,valid,clock,2,2.5445644078745318,1,f,0,same,1.0612726529780048,0.16091877080522343,0,0,0,0.38746559274750325,0,0,6.89886817700426
22,24,female,24,15,325,left,change,valid,anti,1,3.273431090236045,0,j,1,change,2.613370893982392,0.15434940015096799,0,0,0,0.3874255004002407,0,0,8.92947435404858
22,24,female,25,105,155,right,change,valid,clock,2,1.8815101151394629,1,f,0,same,0.816939946796083,0.17026445290689696,0,0,0,0.38751338282600045,0,0,5.7497560781594075
22,24,female,26,135,135,right,same,valid,clock,2,2.5134466524814343,1,j,0,change,1.2906505929495324,0.16449666030396604,0,0,0,0.38748804446186114,0,0,6.56743147897123
22,24,female,27,135,135,left,same,valid,anti,2,1.9853425586361482,1,f,1,same,1.6350425716582322,0.158880230755302,0,0,0,0.38745500836830615,0,0,6.686573105026582
22,24,female,28,105,15,right,same,catch,clock,3,1.3134047639978235,1,f,1,same,2.7838172533083707,0,0,0,0,0.3875813794466012,0,0,8.825065863708005
22,24,female,29,105,45,right,change,catch,anti,2,3.280015857325452,1,f,0,same,2.973353022417541,0,0,0,0,0.3874925348045508,0,0,10.915845201202501
22,24,female,30,105,105,right,same,valid,anti,1,2.5277589789220656,0,f,1,same,4.592795501445835,0.15378244471867042,0,0,0,0.3874951007155687,0,0,10.447409745711411
22,24,female,31,15,115,right,same,catch,clock,1,2.993420043992046,0,f,1,same,2.7044077847158405,0,0,0,0,0.3874392921679828,0,0,9.979954467923562
22,24,female,32,105,105,right,same,valid,clock,2,3.9841500518641624,1,j,0,change,2.140397947015117,0.16662834992738956,0,0,0,0.38754064562181156,0,0,9.480850291326533
22,24,female,33,165,355,right,same,catch,anti,1,1.0893113161127985,0,j,0,change,2.871103424784451,0,0,0,0,0.3874473106370715,0,0,8.388372642009017
22,24,female,34,45,355,right,change,valid,anti,1,1.5836708039832956,0,j,1,change,1.8623446902656724,0.16208512968034572,0,0,0,0.38748612002927985,0,0,6.65604550898388
22,24,female,35,45,45,right,same,valid,anti,2,2.337366195800314,1,j,0,change,1.7403209055610205,0.17394570205837945,0,0,0,0.38749606293185934,0,0,7.425203396495817
22,24,female,36,105,105,left,same,valid,clock,2,2.0094303615178433,1,f,1,same,1.6449059305241462,0.16954499340779045,0,0,0,0.38741780266991555,0,0,6.718111348955972
22,24,female,37,45,45,right,same,valid,clock,1,1.1774365402288822,0,j,0,change,1.8558500507724602,0.16548477689013769,0,0,0,0.3875294197641779,0,0,5.8085696269363325
22,24,female,38,135,85,left,change,valid,anti,2,3.1295050166754663,1,f,0,same,3.101485277127722,0.17644976831122489,0,0,0,0.3874348018252931,0,0,9.555919202052792
22,24,female,39,165,115,right,change,valid,anti,1,4.913313930775985,0,j,1,change,3.81098414844746,0.17278811170280373,0,0,0,0.3874412166005641,0,0,12.400036307630216
22,24,female,40,165,165,left,same,valid,clock,1,3.0654403326452666,0,f,1,same,2.5605368782244113,0.1824607583115318,0,0,0,0.3875011947520761,0,0,8.284921877656416
22,24,female,41,165,135,left,same,catch,clock,2,1.8733909337415753,1,f,1,same,3.0887529099027233,0,0,0,0,0.38756373881369655,0,0,9.808716525295495
22,24,female,42,75,25,left,change,valid,anti,2,1.8879547193819235,1,f,0,same,2.9976996614923337,0.19188590287605511,0,0,0,0.38749093111164257,0,0,7.874318189545193
22,24,female,43,105,15,left,change,catch,clock,2,2.0414477891799834,1,f,0,same,1.7115522409694677,0,0,0,0,0.3875210805563256,0,0,8.747376517174416
22,24,female,44,45,95,left,change,valid,clock,2,2.582608517153858,1,f,0,same,2.3019357868142833,0.18837923494745967,0,0,0,0.38743640551911085,0,0,8.313664241667539
22,24,female,45,135,135,left,same,valid,clock,1,1.785434738960248,0,j,0,change,1.298000322021835,0.1851361810733243,0,0,0,0.38746174388234067,0,0,5.981311513687615
22,24,female,46,135,65,left,same,catch,anti,2,2.2014611575723393,1,f,1,same,1.901028352666799,0,0,0,0,0.3875156279964358,0,0,8.716192048115772
22,24,female,47,15,15,left,same,valid,anti,1,3.824365370218402,0,j,0,change,1.19934620607728,0.19414508852346707,0,0,0,0.3874989495807313,0,0,8.10753120307254
22,24,female,48,75,75,left,same,valid,anti,2,4.38540741201723,1,j,0,change,1.7759982834058974,0.20239087679759166,0,0,0,0.3874293492663128,0,0,9.225895679071982
22,24,female,49,75,75,right,same,valid,clock,1,1.4574228895862689,0,j,0,change,2.295433449590746,0.19926415976642975,0,0,0,0.3874639890536855,0,0,6.765015546208815
22,24,female,50,75,75,right,same,valid,anti,1,1.473406265054109,0,j,0,change,2.4029168625847888,0.20734560282789216,0,0,0,0.38749349702175095,0,0,7.041007735578205
22,24,female,51,105,105,left,same,valid,anti,2,2.441402308421857,1,f,1,same,1.6197356342700004,0.2154159954990082,0,0,0,0.38744698989921744,0,0,7.011924426245969
22,24,female,52,15,65,right,change,valid,clock,1,6.377384131512372,0,j,1,change,2.667131524067372,0.2126898416319699,0,0,0,0.3875050436172387,0,0,12.110769061024257
22,24,female,53,45,355,left,change,valid,anti,2,2.577455207226194,1,f,0,same,1.853168674598237,0.22002907251560921,0,0,0,0.387444103249436,0,0,7.635552546313193
22,24,female,54,45,45,left,same,valid,clock,2,2.505349602059141,1,f,1,same,2.8148625217381777,0.2173167846656413,0,0,0,0.3875210805563256,0,0,8.181912770598501
22,24,female,55,105,55,right,change,valid,anti,1,0.9934562874741459,0,j,1,change,0.8367997711211501,0.21477716090337062,0,0,0,0.38746623422503035,0,0,5.110255237504134
22,24,female,56,75,125,right,change,valid,clock,2,1.3694740717983223,1,j,1,change,1.544868147496345,0.22150320591992206,0,0,0,0.38748098820906307,0,0,5.77595049332831
22,24,female,57,15,15,right,same,valid,anti,2,1.3854494287970738,1,j,0,change,1.2868004446727355,0.21893865348178387,0,0,0,0.3875117791312732,0,0,6.115028792719386
22,24,female,58,165,115,left,change,valid,anti,1,3.417451460997654,0,j,1,change,2.0815715686885596,0.21653892022467885,0,0,0,0.3874957421930958,0,0,8.822454729325727
22,24,female,1,45,95,right,change,valid,clock,2,1.5356533224367013,1,j,1,change,1.3084734053027205,0.22321545222443134,0,0,0,0.38757047432773106,0,0,6.201196227342734
22,24,female,2,15,65,left,change,valid,clock,2,2.857434821069546,1,j,1,change,1.2996069025548422,0.2208342629708927,0,0,0,0.3875448152257377,0,0,7.562851649976437
22,24,female,3,105,15,left,change,catch,clock,2,4.041243478579418,1,f,0,same,1.9432022944374694,0,0,0,0,0.38748547855175275,0,0,10.431916138356428
22,24,female,4,165,75,left,change,catch,clock,2,3.3199699660208353,1,f,0,same,0.6949629899518186,0,0,0,0,0.3874312736988941,0,0,8.903610620559448
22,24,female,5,165,355,right,same,catch,anti,1,3.2000495862148455,0,j,0,change,2.0088280140944335,0,0,0,0,0.3875031191846574,0,0,10.104640384475715
22,24,female,6,105,105,right,same,valid,anti,2,3.9762810467109375,1,f,1,same,2.7264701222211443,0.2185237273852671,0,0,0,0.3874566120621239,0,0,9.449949034608835
22,24,female,7,15,15,left,same,valid,anti,1,2.1533631705924563,0,j,0,change,2.9340169773449816,0.216358578826499,0,0,0,0.3874614231435771,0,0,8.009525941673019
22,24,female,8,135,135,right,same,valid,anti,2,1.5853473055694849,1,f,1,same,4.092723014482544,0.22245459897546854,0,0,0,0.38742517966238665,0,0,8.877616987865622
22,24,female,9,105,155,left,change,valid,clock,2,2.2093118806133134,1,f,0,same,3.1294161720343254,0.22028029816464684,0,0,0,0.38748162968659017,0,0,8.432733701498364
22,24,female,10,135,185,right,change,valid,clock,1,1.5853261368101812,0,j,1,change,4.154156357587453,0.2181838239508101,0,0,0,0.3874951007155687,0,0,8.758703727819011
22,24,female,11,165,215,right,change,valid,clock,2,1.5934000940405895,1,f,0,same,1.4687391951119935,0.22384490564777804,0,0,0,0.38748932741691533,0,0,6.230910429847427
22,24,female,12,75,25,right,change,valid,anti,1,2.4252944863073935,0,j,1,change,6.319420861234903,0.2218179680024403,0,0,0,0.38749157258916966,0,0,12.013067859986222
22,24,female,13,45,45,right,same,valid,clock,2,1.5933231167346094,1,f,1,same,3.2603770220175647,0.2270335947037181,0,0,0,0.38746495126997615,0,0,7.88694086410851
22,24,female,14,75,125,left,change,valid,clock,2,1.8733829152724866,1,f,0,same,1.9700696195586715,0.2251799700231888,0,0,0,0.38748868593938823,0,0,7.072665294332182
22,24,female,15,45,355,left,change,valid,anti,2,1.609402713835152,1,j,1,change,1.3930461267264036,0.22339259412249302,0,0,0,0.3875210805563256,0,0,6.1326537092481885
22,24,female,16,135,135,left,change,catch,clock,2,3.24936958793387,1,j,1,change,1.898516968043623,0,0,0,0,0.3875185146462172,0,0,10.042592505874381
22,24,female,17,15,325,right,change,valid,anti,2,1.47999231509948,1,f,0,same,1.8160300108856973,0.22152174526960383,0,0,0,0.3874777808214276,0,0,6.5370010667775205
22,24,female,18,105,155,right,change,valid,clock,2,1.2894186353078112,1,j,1,change,1.7282207144653512,0.21966581458518702,0,0,0,0.3874639890536855,0,0,6.398087498821042
22,24,female,19,105,55,left,change,valid,anti,1,0.9134184916165395,0,j,1,change,1.3279983783450007,0.2178944566499041,0,0,0,0.3874049731193736,0,0,5.561786476498128
22,24,female,20,165,165,left,same,valid,anti,2,1.169436352917728,1,f,1,same,1.1680581383934623,0.22277933285537355,0,0,0,0.38747617712760984,0,0,5.725982599279632
22,24,female,21,105,15,right,same,catch,clock,1,2.3852499292770517,0,j,0,change,1.8382796598370987,0,0,0,0,0.3874267833552949,0,0,9.34012583223739
22,24,female,22,105,105,left,same,valid,clock,2,1.0880075129844045,1,f,1,same,1.25246279269777,0.22103868658321535,0,0,0,0.3874113878937351,0,0,5.69385900708312
22,24,female,23,45,355,right,change,valid,anti,1,1.2254485692164963,0,j,1,change,1.2103331128782884,0.2193119430112141,0,0,0,0.3874120293721717,0,0,5.910517088641427
22,24,female,24,165,165,right,same,valid,anti,2,1.2974152944925663,1,j,0,change,3.0475091105854517,0.22388992505104394,0,0,0,0.3875044021397116,0,0,7.661010545250065
22,24,female,25,105,45,right,change,catch,anti,1,3.1134215707088515,0,f,0,same,1.465180277644322,0,0,0,0,0.38749093111164257,0,0,9.715027124878361
22,24,female,26,165,135,left,same,catch,clock,2,1.2564579149029669,1,f,1,same,4.21454697892932,0,0,0,0,0.3874514802409976,0,0,10.073596719740635
22,24,female,27,15,325,left,change,valid,anti,2,0.8723405142463889,1,f,0,same,1.0176810458133332,0.22224714639342313,0,0,0,0.3874001620370109,0,0,4.721545499040985
22,24,female,28,105,55,right,change,valid,anti,2,0.9374020543964434,1,f,0,same,2.117933082345189,0.22061647095617898,0,0,0,0.38742967000507633,0,0,6.416846226924463
22,24,female,29,75,75,left,same,valid,anti,1,0.8573456556896417,0,j,0,change,1.2554139101848705,0.2190057556441457,0,0,0,0.38742325522980536,0,0,5.027879576701707
22,24,female,30,45,45,left,same,valid,clock,2,1.4413179541234058,1,j,0,change,1.2184667275214451,0.22331954050234304,0,0,0,0.38737931401738024,0,0,6.052172973139932
22,24,female,31,45,95,left,change,valid,clock,1,0.817417847573779,0,f,0,same,1.3685529100312124,0.22178001940312408,0,0,0,0.3874485935921257,0,0,5.509670274122982
22,24,female,32,105,105,right,same,valid,clock,2,1.505107123543894,1,j,0,change,1.5396988006295942,0.22577638877169737,0,0,0,0.3874181234086791,0,0,6.2337714197374225
22,24,female,33,165,165,right,same,valid,clock,1,4.20931701243444,0,j,0,change,1.362744010042661,0.22437608216925253,0,0,0,0.38743319813147536,0,0,8.952340462928078
22,24,female,34,15,15,right,same,valid,clock,1,2.4332462420643424,0,j,0,change,1.2863908612544037,0.2281839000956486,0,0,0,0.3875342308456311,0,0,6.556715917175097
22,24,female,35,15,115,right,same,catch,clock,2,0.9052540860511726,1,j,0,change,2.2681915015773484,0,0,0,0,0.3874797052540089,0,0,7.609336962384987
22,24,female,36,75,25,left,change,valid,anti,2,2.1518839233531253,1,f,0,same,1.1064185602554062,0.23228546433125846,0,0,0,0.387480346731536,0,0,6.708752832924802
22,24,female,37,45,45,right,same,valid,anti,2,1.129410398735672,1,f,1,same,1.5313358577614054,0.23082384966728042,0,0,0,0.38743512256405666,0,0,5.502851046987416
22,24,female,38,45,45,left,same,valid,anti,2,6.633241302686656,1,f,1,same,2.1867530394811183,0.22936655415117935,0,0,0,0.38736872963636415,0,0,12.16341223721065
22,24,female,39,135,135,left,same,valid,clock,1,1.1534083947608451,0,j,0,change,2.924845452020236,0.22797927802131018,0,0,0,0.3874713660452471,0,0,7.001700877733128
22,24,female,40,165,215,left,change,valid,clock,2,3.4095481367967295,1,j,1,change,1.002297772597558,0.23186212131511896,0,0,0,0.3875287782866508,0,0,7.564044156748423
22,24,female,41,105,105,left,same,valid,anti,1,2.033439583398831,0,j,0,change,1.1222672254361896,0.23047590920098882,0,0,0,0.3874322359142752,0,0,6.524531705348636
22,24,female,42,75,75,right,same,valid,clock,2,3.7854902267690704,1,j,0,change,1.1174025804075427,0.23412035147129645,0,0,0,0.3874671964422305,0,0,8.01075437118834
22,24,female,43,75,75,left,same,valid,clock,1,2.425391028679769,0,f,1,same,1.7152773011248428,0.2327970374660061,0,0,0,0.3874280663103491,0,0,7.438740818050974
22,24,female,44,165,115,right,change,valid,anti,2,0.8494737638884544,1,j,1,change,1.4559949605527436,0.23621627489430758,0,0,0,0.3873921435679222,0,0,5.228241562484982
22,24,female,45,75,75,right,same,valid,anti,1,2.4974324860904744,0,j,0,change,1.2256166363358716,0.23499827784878047,0,0,0,0.387394388739267,0,0,6.801313553586624
22,24,female,46,135,85,left,change,valid,anti,1,3.9133610793760454,0,j,1,change,1.8133370881150768,0.23830328526136008,0,0,0,0.38746014018852293,0,0,8.726404691509742
22,24,female,47,75,45,right,change,catch,clock,2,4.177541101071256,1,j,1,change,1.0402479054155265,0,0,0,0,0.38746815865852113,0,0,9.511697022454427
22,24,female,48,135,85,right,change,valid,anti,2,1.4881560791864104,1,j,1,change,1.1429956103684162,0.24190570705826886,0,0,0,0.38745244245819777,0,0,5.895204377956361
22,24,female,49,15,15,right,same,valid,anti,2,0.9454856337897581,1,j,0,change,1.4605872983593144,0.24062085243877612,0,0,0,0.3875262123765424,0,0,5.8851553113372574
22,24,female,50,15,15,left,same,valid,clock,1,2.6733942694245343,0,j,0,change,1.6966099835717614,0.23933819911576915,0,0,0,0.3875262123765424,0,0,7.730703874075516
22,24,female,51,135,185,left,change,valid,clock,2,5.817354662033722,1,f,0,same,1.9814414128932185,0.24277234233253375,0,0,0,0.3874963836697134,0,0,10.863774222993925
22,24,female,52,75,125,right,change,valid,clock,1,2.3374357961147325,0,j,1,change,1.5315376024518628,0.24155018616132656,0,0,0,0.3874790637764818,0,0,7.076412806201006
22,24,female,53,15,65,right,change,valid,clock,2,3.1453501537298507,1,j,1,change,1.6584558608919906,0.24474506637345023,0,0,0,0.38746559274750325,0,0,7.94404647889769
22,24,female,54,135,135,right,same,valid,clock,2,2.825353245651968,1,j,0,change,1.9251190421964566,0.24356379410963475,0,0,0,0.3874633475761584,0,0,8.275059801745556
22,24,female,55,165,165,left,same,valid,clock,1,2.0894254991180787,0,j,0,change,2.110507658921051,0.24239477404498344,0,0,0,0.38742646261744085,0,0,7.365798726154026
22,24,female,56,165,115,left,change,valid,anti,2,1.3854189586127177,1,f,0,same,1.8945888802427362,0.24543302991505578,0,0,0,0.3874813089478266,0,0,6.3614533572053915
22,24,female,57,135,65,left,same,catch,anti,2,1.353404738338213,1,j,0,change,2.1535065408252194,0,0,0,0,0.3874845163354621,0,0,8.263707894215258
22,24,female,58,135,135,left,same,valid,anti,2,1.2081713335228415,1,j,0,change,1.3522481543086542,0.24436440523641662,0,0,0,0.38748419559669856,0,0,5.388954782888504
22,24,female,1,45,355,left,change,valid,anti,2,1.6882091935276549,1,f,0,same,0.8874967044093864,0.24324051752749737,0,0,0,0.38741844414744264,0,0,5.321276976536865
22,24,female,2,15,65,right,change,valid,clock,2,1.6814682266549426,1,f,0,same,1.2238535352789768,0.24212417086244792,0,0,0,0.38744506546572666,0,0,5.747588525506217
22,24,female,3,165,165,right,same,valid,clock,1,1.8173601145936118,0,j,0,change,1.107693496893262,0.24100501407679759,0,0,0,0.3874335188702389,0,0,6.413791510814917
22,24,female,4,105,15,right,same,catch,clock,2,2.385305096346201,1,j,0,change,2.7794337164450553,0,0,0,0,0.3874485935930352,0,0,10.073301319326674
22,24,female,5,75,75,right,same,valid,anti,2,1.4322048032554449,1,j,0,change,1.3237841915552053,0.24394893234841997,0,0,0,0.38743704699663795,0,0,6.065858255270541
22,24,female,6,165,215,left,change,valid,clock,1,1.4814324322078392,0,f,0,same,2.1494267435837173,0.2428759223541283,0,0,0,0.3874614231435771,0,0,6.963820986708015
22,24,female,7,105,105,left,same,valid,clock,2,1.1213736472036544,1,j,0,change,2.937192932713515,0.24565866244212947,0,0,0,0.387427424832822,0,0,7.453097727180648
22,24,female,8,45,95,left,change,valid,clock,2,1.4974674466175202,1,f,0,same,2.001756365541951,0.24467243560162089,0,0,0,0.3874441032503455,0,0,6.771277329349687
22,24,female,9,45,45,right,same,valid,clock,2,3.3614430935640485,1,j,0,change,1.8897300085118331,0.2436362985970304,0,0,0,0.38741908562496974,0,0,8.678568748111502
22,24,female,10,75,75,right,same,valid,clock,1,4.329510661677887,0,j,0,change,2.0330973551244824,0.24260882114359988,0,0,0,0.38745019728594343,0,0,9.460362460476972
22,24,female,11,45,45,left,same,valid,anti,2,1.7692659764798009,1,j,0,change,1.336832165737178,0.2452815775560736,0,0,0,0.38743832995169214,0,0,6.229750638431142
22,24,female,12,75,45,right,change,catch,clock,2,1.1774230692008132,1,j,1,change,1.1689302271279303,0,0,0,0,0.38747681860513694,0,0,7.06334462547693
22,24,female,13,15,15,right,same,valid,anti,2,2.127917038990745,1,j,0,change,1.574852091313005,0.24434121828086336,0,0,0,0.38740465238061006,0,0,6.8237091386818065
22,24,female,14,105,15,left,change,catch,clock,1,3.2494430371143608,0,f,0,same,1.7827568909124238,0,0,0,0,0.3875303819804685,0,0,9.449262332886974
22,24,female,15,15,65,left,change,valid,clock,2,2.1682932399171477,1,j,1,change,2.4759991173268645,0.24334957014458347,0,0,0,0.38748804446186114,0,0,7.405084735977653
22,24,female,16,135,85,left,change,valid,anti,2,4.017460377535826,1,f,0,same,1.9477423518237629,0.24236307386983091,0,0,0,0.3875290990263238,0,0,9.058251293699868
22,24,female,17,105,55,left,change,valid,anti,1,3.2340998562449386,0,j,1,change,1.000368849593542,0.24137361027790105,0,0,0,0.3874428202943818,0,0,7.4652142759541675
22,24,female,18,105,105,right,same,valid,anti,2,2.98546315641579,1,j,0,change,1.6290107582199198,0.2439751428734257,0,0,0,0.38745564984583325,0,0,8.03916765721533
22,24,female,19,165,115,right,change,valid,anti,2,1.3613019685026302,1,j,1,change,1.1494754958785052,0.2430233390224289,0,0,0,0.38748868593938823,0,0,5.659939598473102
22,24,female,20,45,355,right,change,valid,anti,1,3.313315598617919,0,f,0,same,1.2620285059792877,0.24207322358879368,0,0,0,0.38747681860422745,0,0,8.036231935190699
22,24,female,21,105,155,left,change,valid,clock,2,2.0973214463274417,1,j,1,change,1.2028172411210107,0.24455916660053928,0,0,0,0.38749606293094985,0,0,6.585286044463828
22,24,female,22,135,135,left,same,valid,anti,2,3.761117607853521,1,f,1,same,1.5262669021321926,0.2436372498195125,0,0,0,0.3875316649355227,0,0,8.432491864460644
22,24,female,23,165,215,right,change,valid,clock,2,4.249329495586608,1,j,1,change,1.1537300957534171,0.24272114368335235,0,0,0,0.38751145839250967,0,0,8.615226047067154
22,24,female,24,165,355,right,same,catch,anti,1,2.5614012692276447,0,f,1,same,1.5662165204848861,0,0,0,0,0.38750953396083787,0,0,8.622474743424391
22,24,female,25,75,125,left,change,valid,clock,2,2.149380877938711,1,f,0,same,1.9885339094653318,0.24180376642452894,0,0,0,0.38753134419766866,0,0,7.446511356398332
22,24,female,26,15,115,right,same,catch,clock,1,2.0893305604404304,0,j,0,change,2.8187405742892224,0,0,0,0,0.3875156279964358,0,0,9.511353511223206
22,24,female,27,75,25,right,change,valid,anti,2,1.160213188650232,1,f,0,same,1.1585074998356504,0.2408782398920601,0,0,0,0.387407539029482,0,0,5.101704020973557
22,24,female,28,135,185,left,change,valid,clock,1,3.9774414796065685,0,j,1,change,1.24300741355637,0.23993805907659804,0,0,0,0.38744185807900067,0,0,8.719999217397344
22,24,female,29,165,165,right,same,valid,anti,1,2.0814128029942367,0,j,0,change,1.3594349480827077,0.24244009662610777,0,0,0,0.3874931762820779,0,0,6.750104721210846
22,24,female,30,165,115,left,change,valid,anti,2,1.506139260927739,1,f,0,same,1.0004323558714532,0.2447489813840677,0,0,0,0.3874213307972241,0,0,5.313791574962124
22,24,female,31,105,45,right,change,catch,anti,2,1.2092765993484136,1,f,0,same,1.1965156863716402,0,0,0,0,0.38754930556842737,0,0,7.188063257384783
22,24,female,32,165,75,left,change,catch,clock,1,2.7756060198817067,0,j,1,change,2.5448322247530086,0,0,0,0,0.38745436688986956,0,0,9.66807160942244
22,24,female,33,165,165,left,same,valid,clock,1,3.9279598255434394,0,j,0,change,2.9193220095439756,0.24388770746511668,0,0,0,0.38742325522889587,0,0,10.022003000832228
22,24,female,34,105,105,right,same,valid,clock,2,5.385087956195093,1,j,0,change,3.233121282236425,0.24611129697118045,0,0,0,0.3875169109523995,0,0,11.580785758685124
22,24,female,35,165,165,left,same,valid,anti,1,3.897447624961387,0,j,0,change,0.9850606292511657,0.2453104431458576,0,0,0,0.38750279844589386,0,0,8.173187072174187
22,24,female,36,15,325,right,change,valid,anti,2,2.305376351673658,1,j,1,change,1.3565839010943819,0.24766927692546048,0,0,0,0.38749477997589565,0,0,6.349295112389882
22,24,female,37,135,185,right,change,valid,clock,2,1.8655071746052272,1,f,0,same,1.0684799740329254,0.24685404178608794,0,0,0,0.3874322359142752,0,0,5.542976109451047
22,24,female,38,105,55,right,change,valid,anti,1,3.9854849666526206,0,j,1,change,1.3255851397871083,0.24606346681809055,0,0,0,0.38750953396083787,0,0,8.588029643960908
22,24,female,39,15,15,left,same,valid,anti,2,1.1694302588812207,1,f,1,same,0.9234037312189685,0.24837915530849053,0,0,0,0.387470403829866,0,0,5.27797499648841
22,24,female,40,45,95,right,change,valid,clock,2,2.057488256149554,1,f,0,same,1.0164385037924148,0.2475658289443251,0,0,0,0.3874027279471193,0,0,6.068502425747283
22,24,female,41,45,45,right,same,valid,anti,2,4.433419120264261,1,f,1,same,1.4221916593805872,0.24678101822510673,0,0,0,0.3874386506904557,0,0,8.894928542607886
22,24,female,42,135,135,right,same,valid,clock,2,1.0975417938670944,1,j,0,change,1.0148614312265636,0.2460191468304338,0,0,0,0.387477139342991,0,0,5.248736128849487
22,24,female,43,105,155,right,change,valid,clock,1,3.2174567211131944,0,j,1,change,1.0884732256890857,0.24527506475585725,0,0,0,0.3874845163354621,0,0,7.758909962852158
22,24,female,44,135,85,right,change,valid,anti,2,1.9295154086112234,1,f,0,same,1.0086647580574208,0.2474695740784011,0,0,0,0.38748612003018934,0,0,6.436621376212315
22,24,female,45,75,125,right,change,valid,clock,2,1.1934295378605384,1,j,1,change,1.1371960118058269,0.2467130761965317,0,0,0,0.3874527631969613,0,0,5.623315720497885
22,24,female,46,135,135,right,same,valid,anti,2,3.753457724384134,1,j,0,change,1.341703225541096,0.2459779706743463,0,0,0,0.3874877237240071,0,0,8.39090359169677
22,24,female,47,75,25,left,change,valid,anti,1,2.225437664097626,0,j,1,change,1.3953939345738036,0.24525946644660218,0,0,0,0.3874925348045508,0,0,6.869098486690746
22,24,female,48,15,15,right,same,valid,clock,1,2.665479398628122,0,j,0,change,1.163884043951839,0.24737979157564938,0,0,0,0.3874700830911024,0,0,6.763923430673458
22,24,female,49,105,105,left,same,valid,anti,2,1.8814504577267144,1,f,1,same,1.460465096885855,0.24957126476780517,0,0,0,0.38743576404158375,0,0,6.351901114951943
22,24,female,50,15,15,left,same,valid,clock,2,2.3134326682711617,1,f,1,same,0.9035923384490161,0.2487811577218223,0,0,0,0.3874447447278726,0,0,6.40123490843871
22,24,female,51,135,135,left,change,catch,clock,1,2.52140803040038,0,j,1,change,1.2996184491512395,0,0,0,0,0.38742261375136877,0,0,8.388466297730702
22,24,female,52,75,75,left,same,valid,clock,1,8.896470013170074,0,j,0,change,1.9752979823606438,0.24802446002016043,0,0,0,0.3875082510048742,0,0,14.170081037859745
22,24,female,53,75,75,left,same,valid,anti,2,1.7774104962409183,1,j,0,change,1.1693670733420731,0.25020963798040996,0,0,0,0.38745949871099583,0,0,5.803856049870774
22,24,female,54,135,65,left,same,catch,anti,2,2.473458545475296,1,j,0,change,1.39785368025332,0,0,0,0,0.38753070271923207,0,0,8.669277587223405
22,24,female,55,15,325,left,change,valid,anti,1,2.807984599407064,0,j,1,change,2.0378792495475864,0.24941318296360748,0,0,0,0.38751209987003676,0,0,8.164449506414712
22,24,female,56,165,135,left,same,catch,clock,2,1.8334371457840462,1,j,0,change,1.438341177534312,0,0,0,0,0.3874691208739023,0,0,7.46887294318276
22,24,female,57,135,135,left,same,valid,clock,1,4.46415744168462,0,f,1,same,1.7142092409976613,0.25157396247255104,0,0,0,0.3874931762829874,0,0,9.35441987656668
22,24,female,58,45,45,left,same,valid,clock,2,1.8094606392587593,1,j,0,change,1.294988584906605,0.2535563909320113,0,0,0,0.38745757427841454,0,0,6.056567094382444
22,24,female,1,15,115,right,same,catch,clock,2,3.303553272465251,1,f,1,same,1.158352262266817,0,0,0,0,0.3874691208739023,0,0,8.91564858833226
22,24,female,2,15,15,right,same,valid,clock,1,1.9199118481546975,0,j,0,change,1.4220816459801426,0.25283312905284705,0,0,0,0.3874832333804079,0,0,6.20037609828978
22,24,female,3,45,95,left,change,valid,clock,2,0.9934543630415646,1,j,1,change,1.577384644695485,0.25472165721136664,0,0,0,0.38746687570346694,0,0,5.59762743111969
22,24,female,4,105,15,right,same,catch,clock,2,3.2494314905179635,1,f,1,same,1.1767142365042673,0,0,0,0,0.3875149865198182,0,0,8.919529527532177
22,24,female,5,105,15,left,change,catch,clock,1,5.168234865459453,0,j,1,change,1.7786620189481255,0,0,0,0,0.3875294197641779,0,0,11.539728629335514
22,24,female,6,135,65,left,same,catch,anti,2,3.1043392107649197,1,j,0,change,1.0524536195689507,0,0,0,0,0.38744763137583504,0,0,8.654559526230514
22,24,female,7,135,85,right,change,valid,anti,2,1.1662334554921472,1,f,0,same,1.2366843693089322,0.25401439318149466,0,0,0,0.38743704699663795,0,0,5.225868095536498
22,24,female,8,105,105,left,same,valid,clock,2,3.5934305642249456,1,f,1,same,1.6287920143740848,0.25331114697564405,0,0,0,0.38747008309019293,0,0,8.671014708438634
22,24,female,9,75,75,left,same,valid,anti,2,1.3534230204486448,1,j,0,change,1.5062390106877501,0.2526076420610872,0,0,0,0.38745949871099583,0,0,5.988365200868429
22,24,female,10,105,45,right,change,catch,anti,1,3.8654564978787675,0,f,0,same,1.423155479405068,0,0,0,0,0.38747810156019113,0,0,10.292360772108623
22,24,female,11,165,215,left,change,valid,clock,2,2.920379164552287,1,j,1,change,1.3584486763429595,0.2518997044454409,0,0,0,0.3874665549637939,0,0,7.475416976446468
22,24,female,12,45,45,left,same,valid,clock,1,6.873356293953293,0,j,0,change,1.989831618556309,0.25118321256492304,0,0,0,0.38747746008175454,0,0,11.913597143116021
22,24,female,13,75,125,right,change,valid,clock,2,1.6734590586574996,1,j,1,change,0.9307422344336373,0.2530795398120321,0,0,0,0.38752204277261626,0,0,5.481476373419355
22,24,female,14,105,55,left,change,valid,anti,1,2.5693629678862635,0,j,1,change,4.407122068688295,0.25239414155795264,0,0,0,0.3874899688953519,0,0,9.924627670391601
22,24,female,15,45,355,right,change,valid,anti,2,1.4894778436864726,1,f,0,same,1.0846538683335893,0.2541917208538917,0,0,0,0.3875044021397116,0,0,5.521776238516395
22,24,female,16,15,325,right,change,valid,anti,2,3.2173037287166153,1,f,0,same,1.0450737410528745,0.25352575325704785,0,0,0,0.38749349702175095,0,0,7.4863926573916615
22,24,female,17,165,165,left,same,valid,anti,1,2.7772645600971373,0,f,1,same,1.9141096836810902,0.25286027447151077,0,0,0,0.3874870822455705,0,0,8.107746418791066
22,24,female,18,165,355,right,same,catch,anti,2,1.7853981747393846,1,f,1,same,1.0215385710826013,0,0,0,0,0.3874627060986313,0,0,7.499101289947248
22,24,female,19,135,135,left,same,valid,anti,1,1.2723110704273495,0,j,0,change,1.1821395329143343,0.25459952832758015,0,0,0,0.3874453862044902,0,0,5.290744248672127
22,24,female,20,75,25,right,change,valid,anti,2,1.3534422647753672,1,j,1,change,0.9494050616431196,0.2562913671936464,0,0,0,0.3875230049889069,0,0,5.672994308169109
22,24,female,21,165,165,right,same,valid,anti,1,8.665442513668495,0,j,0,change,1.204507534474942,0.2556755867834847,0,0,0,0.38754930556842737,0,0,12.641010878817724
22,24,female,22,15,325,left,change,valid,anti,2,2.3534749801301587,1,j,1,change,1.1991851952107027,0.25748995204060954,0,0,0,0.387427424832822,0,0,6.507713446845628
22,24,female,23,135,135,right,same,valid,clock,2,3.193409010578762,1,j,0,change,1.5491609152859382,0.25686101488407564,0,0,0,0.38752396720519755,0,0,7.568229797787353
22,24,female,24,75,75,left,same,valid,clock,2,4.185472971023046,1,f,1,same,1.2571709172043484,0.25624931196893586,0,0,0,0.387490289633206,0,0,8.85859012214405
22,24,female,25,75,125,left,change,valid,clock,2,1.473438338932283,1,f,0,same,1.280900775610462,0.2556514733961025,0,0,0,0.3874931762820779,0,0,5.836284664645973
22,24,female,26,105,155,left,change,valid,clock,2,4.081440386528811,1,f,0,same,0.8479961203438506,0.25506433445711185,0,0,0,0.38741587823733425,0,0,8.216355624892458
22,24,female,27,105,105,right,same,valid,clock,2,1.8815399438444729,1,j,0,change,1.004079155763975,0.2544848991891544,0,0,0,0.3874219722738417,0,0,6.377223441385468
22,24,female,28,45,95,right,change,valid,clock,1,4.057426674304224,0,f,0,same,1.5255173356099476,0.2538703924920629,0,0,0,0.3874315944376576,0,0,8.924075358217124
22,24,female,29,105,55,right,change,valid,anti,2,1.6494751751397416,1,f,0,same,1.4227349908687756,0.2554642357215662,0,0,0,0.38753391010686755,0,0,5.871503386039876
22,24,female,30,165,115,left,change,valid,anti,2,0.8814911915505945,1,f,0,same,1.0239062647342507,0.2548945562519336,0,0,0,0.3874585364947052,0,0,5.372632707271805
22,24,female,31,135,135,left,change,catch,clock,2,4.5533378963764335,1,f,0,same,1.5013419710430753,0,0,0,0,0.3874242174451865,0,0,10.759740355544636
22,24,female,32,135,135,right,same,valid,anti,2,2.576087897819889,1,j,0,change,1.2835741333155966,0.25429251714858436,0,0,0,0.38747810156019113,0,0,7.287650402431609
22,24,female,33,15,15,right,same,valid,anti,1,3.009534280880871,0,j,0,change,1.054796616333988,0.25369415013090724,0,0,0,0.38749413849927805,0,0,7.112380452639627
22,24,female,34,15,65,right,change,valid,clock,1,3.2894513506626026,0,j,1,change,1.8766817135920064,0.2552489891328993,0,0,0,0.3874501972868529,0,0,8.773376243905659
22,24,female,35,105,105,right,same,valid,anti,2,4.585451545672186,1,j,0,change,1.1121908960221845,0.25690939754579944,0,0,0,0.38740914272329974,0,0,8.941732027884427
22,24,female,36,135,185,left,change,valid,clock,2,2.537362860117355,1,j,1,change,3.8811880934063083,0.2563403807930399,0,0,0,0.3874800259927724,0,0,9.193835272412798
22,24,female,37,105,105,left,same,valid,anti,1,2.3611287695621286,0,f,1,same,1.2236312633058333,0.2557842492114546,0,0,0,0.3874614231435771,0,0,6.652093045036054
22,24,female,38,45,45,right,same,valid,clock,2,2.137358305626549,1,f,1,same,1.1959248855446276,0.2574231851904585,0,0,0,0.38747874303771823,0,0,6.2455710785998235
22,24,female,39,135,135,left,same,valid,clock,2,2.0654820286854374,1,j,0,change,0.9613849756979107,0.2568546434254336,0,0,0,0.3875095339599284,0,0,5.707717808892085
22,24,female,40,15,65,left,change,valid,clock,1,4.4814513557948885,0,j,1,change,1.7968171166739921,0.25630111249449716,0,0,0,0.3874890066781518,0,0,9.557711169600225
22,24,female,41,45,45,right,same,valid,anti,1,0.9294544682434207,0,j,0,change,1.338231228281984,0.257925913797296,0,0,0,0.3875374382332666,0,0,5.169182969283611
22,24,female,42,75,25,left,change,valid,anti,2,1.2895219131942213,1,f,0,same,1.1443847300115522,0.25963734289413243,0,0,0,0.38752011834003497,0,0,5.58839207877827
22,24,female,43,165,75,left,change,catch,clock,2,3.8095340884383404,1,f,0,same,1.0302039706175492,0,0,0,0,0.3874938177605145,0,0,9.62150194271453
22,24,female,44,165,165,left,same,valid,clock,1,0.8165277974676428,0,j,0,change,1.2620968233395615,0.2590159365101236,0,0,0,0.3874912518494966,0,0,5.223784255703322
22,24,female,45,105,155,right,change,valid,clock,1,4.513388919501267,0,j,1,change,1.2604116618049375,0.26076730335544085,0,0,0,0.38741106715588103,0,0,8.996471873454539
22,24,female,46,75,45,right,change,catch,clock,2,1.3614969776781436,1,j,1,change,1.0717001913526474,0,0,0,0,0.38742838704911264,0,0,6.891432169200925
22,24,female,47,165,135,left,same,catch,clock,1,0.7680061145647414,0,j,0,change,1.61634350096665,0,0,0,0,0.38747617712760984,0,0,6.782482017781149
22,24,female,48,75,75,right,same,valid,anti,2,1.8244712140149204,1,j,0,change,1.0172499728978437,0.2623966205579361,0,0,0,0.38749477997680515,0,0,6.2691970176429095
22,24,female,49,45,355,left,change,valid,anti,1,3.801441528358737,0,j,1,change,1.6494078199957585,0.2618146119213023,0,0,0,0.38742838705002214,0,0,8.78059799820494
22,24,female,50,135,85,left,change,valid,anti,1,3.49731252978836,0,j,1,change,0.9147194080960617,0.2633514176811546,0,0,0,0.38745083876438,0,0,7.324869250837764
22,24,female,51,165,165,right,same,valid,clock,1,3.3131337397308016,0,j,0,change,1.5566190540639582,0.26480881548373425,0,0,0,0.3874514802419071,0,0,7.727197237028122
22,24,female,52,165,215,right,change,valid,clock,1,3.9294685807499263,0,j,1,change,0.5001539546128697,0.2662374189347281,0,0,0,0.3874918933270237,0,0,7.972133894326362
22,24,female,53,15,15,left,same,valid,anti,2,0.8974168340382676,1,j,0,change,0.7198972224659883,0.2678016625349291,0,0,0,0.3875204390787985,0,0,4.447035443558889
22,24,female,54,15,15,left,same,valid,clock,2,0.8894827189151329,1,j,0,change,0.8871743619383778,0.2672536424103298,0,0,0,0.38746238535986777,0,0,4.559710975872804
22,24,female,55,135,185,right,change,valid,clock,2,4.753448743698755,1,f,0,same,1.5495907052463735,0.26672152576823116,0,0,0,0.38746559274750325,0,0,9.23533181388666
22,24,female,56,75,75,right,same,valid,clock,2,0.7694690041253125,1,f,1,same,1.2873399272948518,0.26620270495484655,0,0,0,0.38744314103314537,0,0,5.174811293340099
22,24,female,57,45,45,left,same,valid,anti,2,1.4334620992613054,1,j,0,change,0.8652964492284809,0.2656947312266652,0,0,0,0.3875483433521367,0,0,5.506227784830116
22,24,female,58,165,115,right,change,valid,anti,1,1.8494898008284508,0,j,1,change,1.2367340838191012,0.26519528996550906,0,0,0,0.3874899688944424,0,0,6.133977077441159
22,24,female,1,165,165,right,same,valid,anti,1,2.528294291940256,0,j,0,change,1.373584980700798,0.26667545060697556,0,0,0,0.38745308393572486,0,0,6.753083742970375
22,24,female,2,105,105,left,same,valid,anti,1,2.961410634799904,0,j,0,change,1.2864710459489288,0.26819361454866164,0,0,0,0.38744249955652776,0,0,7.187636033333547
22,24,female,3,135,65,left,same,catch,anti,2,2.873451874109378,1,j,0,change,0.921706060872566,0,0,0,0,0.38745180098067067,0,0,8.450660753954253
22,24,female,4,165,165,right,same,valid,clock,2,1.6642791941249016,1,j,0,change,1.573358731568078,0.26980493226867774,0,0,0,0.3874989495807313,0,0,6.449718423427839
22,24,female,5,135,85,right,change,valid,anti,1,5.377293683178323,0,f,0,same,1.1259884367254926,0.26921722958317873,0,0,0,0.38743031148260343,0,0,9.685534232128703
22,24,female,6,165,135,left,same,catch,clock,2,3.681324214943743,1,j,0,change,0.950754409676847,0,0,0,0,0.38748227116411726,0,0,9.527211798567805
22,24,female,7,45,95,right,change,valid,clock,2,2.032431822161925,1,j,1,change,0.8525281592610554,0.27085762656047285,0,0,0,0.38751145839250967,0,0,6.302657128322608
22,24,female,8,15,15,right,same,valid,clock,2,4.9614132007100125,1,j,0,change,1.0994578873187493,0.2702747229378891,0,0,0,0.38750728878858354,0,0,9.424047133204112
22,24,female,9,105,155,left,change,valid,clock,2,2.9133578719875004,1,j,1,change,1.7661512822169243,0.2696820506980814,0,0,0,0.3875316649355227,0,0,7.928277356932995
22,24,female,10,75,75,left,same,valid,clock,2,2.441483776070527,1,f,1,same,0.8598211175694814,0.2691105575807372,0,0,0,0.3874899688944424,0,0,6.346437329887522
22,24,female,11,15,325,left,change,valid,anti,1,2.425459666777897,0,f,0,same,1.4165537131611927,0.26856242258154994,0,0,0,0.3874585364947052,0,0,7.052124541583908
22,24,female,12,165,165,left,same,valid,clock,2,1.1695213486937064,1,j,0,change,1.0649521682262275,0.27014454197242244,0,0,0,0.38752140129508916,0,0,5.038923254266592
22,24,female,13,165,215,left,change,valid,clock,1,1.3454741513414774,0,f,0,same,0.8062433085869998,0.2695648519994057,0,0,0,0.3874825919028808,0,0,5.671840931528095
22,24,female,14,135,135,right,same,valid,anti,1,3.9454782567981965,0,j,0,change,0.8703894602667788,0.2711404026862307,0,0,0,0.38747168678492017,0,0,7.783755992202714
22,24,female,15,45,355,right,change,valid,anti,1,3.0175014320993796,0,j,1,change,0.7391777925595306,0.27258104406680683,0,0,0,0.3874963836706229,0,0,6.525090432298384
22,24,female,16,105,105,right,same,valid,clock,2,1.937498917506673,1,f,1,same,0.6584940288066718,0.2739263413278616,0,0,0,0.3875175524290171,0,0,5.579927461718398
22,24,female,17,105,105,right,same,valid,anti,1,2.0654765761255476,0,j,0,change,0.8850337513413251,0.2734287267148525,0,0,0,0.3874697623514294,0,0,5.609759696093533
22,24,female,18,15,15,left,same,valid,anti,3,1.1454604878690589,1,f,1,same,0.7728790988012406,0.27472716648440854,0,0,0,0.3875778513192927,0,0,5.232108389179302
22,24,female,19,75,25,right,change,valid,anti,1,2.449476907128883,0,j,1,change,0.8195023288844823,0.27423784296144676,0,0,0,0.3874633475761584,0,0,6.3890458727018995
22,24,female,20,15,15,right,same,valid,anti,1,0.913381606657822,0,f,1,same,0.9844778468932418,0.27550573731457817,0,0,0,0.38739599243308476,0,0,4.967116898378663
22,24,female,21,135,135,left,same,valid,clock,3,3.0654486718522094,1,j,0,change,1.1481364114843018,0.2768729487060878,0,0,0,0.3874877237240071,0,0,7.228380763114728
22,24,female,22,105,105,left,same,valid,clock,1,4.369498127206498,0,j,0,change,0.6945681605184291,0.2764027331427643,0,0,0,0.38749349702175095,0,0,8.405237728374232
22,24,female,23,45,45,right,same,valid,anti,1,3.161441938904318,0,j,0,change,0.8378950940441428,0.2777834732248626,0,0,0,0.3874514802409976,0,0,7.122442348808363
22,24,female,24,75,125,right,change,valid,clock,3,6.065489726416672,1,f,0,same,0.8083614674696946,0.2792389422712363,0,0,0,0.3874918933270237,0,0,9.936483779277296
22,24,female,25,165,115,right,change,valid,anti,1,1.6014685987120174,0,j,1,change,0.5560693078014083,0.2787125970096145,0,0,0,0.3875076095273471,0,0,5.549766790835747
22,24,female,26,75,75,right,same,valid,anti,3,1.3693624547031504,1,f,1,same,0.835545041025398,0.28022839631814156,0,0,0,0.38745693279997795,0,0,5.154800721790707
22,24,female,27,75,25,left,change,valid,anti,1,1.7374624815820425,0,j,1,change,0.634136163875155,0.279673258008489,0,0,0,0.3874261418786773,0,0,5.4696116045861345
22,24,female,28,45,45,left,same,valid,anti,1,1.3214594769005998,0,j,0,change,0.7001996919625526,0.28117409219278305,0,0,0,0.3875092132211648,0,0,4.816275376049816
22,24,female,29,15,15,left,same,valid,clock,1,4.553449192732842,0,f,1,same,0.6339886240366468,0.2825442301977117,0,0,0,0.38745693279997795,0,0,8.002467764149515
22,24,female,30,15,325,right,change,valid,anti,3,1.185487083528642,1,j,1,change,0.5441128076772657,0.2838234936654862,0,0,0,0.38753391010686755,0,0,4.558435718496185
22,24,female,31,165,75,left,change,catch,clock,1,2.321456590251728,0,f,0,same,1.3451534125642866,0,0,0,0,0.387400803514538,0,0,8.170193617170298
22,24,female,32,105,15,left,change,catch,clock,3,5.408119887022622,1,f,0,same,0.8182344484994246,0,0,0,0,0.38739855834410264,0,0,11.35257113825719
22,24,female,33,165,215,right,change,valid,clock,1,4.680308755976512,0,j,1,change,2.024937119162132,0.2833510833162819,0,0,0,0.38752460868272465,0,0,9.85959820411972
22,24,female,34,75,75,left,same,valid,anti,1,1.8093936048535397,0,j,0,change,1.5874340320524425,0.28458518238110186,0,0,0,0.38750857174363773,0,0,6.279526089212595
22,24,female,35,135,135,left,same,valid,anti,1,4.177429804714848,0,j,0,change,1.1974140756856286,0.28579166074169227,0,0,0,0.387467196441321,0,0,8.726703620050102
22,24,female,36,135,185,left,change,valid,clock,1,1.7774762476901742,0,j,1,change,0.5919493925530332,0.28710285071254193,0,0,0,0.3875076095273471,0,0,5.461091499716531
22,24,female,37,135,185,right,change,valid,clock,2,2.8014341513662657,1,j,1,change,0.8890134780840526,0.28846520646762086,0,0,0,0.3874261418777678,0,0,6.679753236414399
22,24,female,38,45,45,right,same,valid,clock,1,0.657457080340464,0,j,0,change,0.6459037488584727,0.2879794259215328,0,0,0,0.3875092132211648,0,0,4.137804132526071
22,24,female,39,75,75,right,same,valid,clock,1,2.065479462775329,0,j,0,change,0.8246931652493004,0.28938929956176696,0,0,0,0.3874428202943818,0,0,5.9217888114771995
22,24,female,40,105,15,right,same,catch,clock,1,6.513088066529235,0,j,0,change,0.8252605521447549,0,0,0,0,0.38746302683739486,0,0,12.101186027849508
22,24,female,41,135,135,left,change,catch,clock,2,1.2959370094704354,1,f,0,same,1.9945888160955292,0,0,0,0,0.3874498765480894,0,0,7.967212157795984
22,24,female,42,135,85,left,change,valid,anti,1,2.3762079824182365,0,f,0,same,0.6739825043414385,0.29086787600969977,0,0,0,0.38747746008266404,0,0,6.0246009849252005
22,24,female,43,165,115,left,change,valid,anti,1,8.609441523226451,0,j,1,change,0.6511346775705533,0.2922283285834336,0,0,0,0.3874559705845968,0,0,12.481589914946198
22,24,female,44,45,95,left,change,valid,clock,2,2.417461403899324,1,f,0,same,0.5358332568903279,0.2934907353222313,0,0,0,0.38738797396308655,0,0,5.736473323193422
22,24,female,45,105,55,right,change,valid,anti,1,2.6494123103393576,0,j,1,change,0.7883688572910614,0.2930278789489931,0,0,0,0.3875290990254143,0,0,6.594092569059285
22,24,female,46,105,155,right,change,valid,clock,2,1.9054869424035132,1,j,1,change,0.6773810524209694,0.29424063617841656,0,0,0,0.38747617712760984,0,0,5.577455207226194
22,24,female,47,105,45,right,change,catch,anti,2,2.4814596950027408,1,j,1,change,0.6323810812873489,0,0,0,0,0.3875117791312732,0,0,7.50010873044539
22,24,female,48,45,355,left,change,valid,anti,1,6.576067370539022,0,j,1,change,0.9539557034095196,0.2937882169011071,0,0,0,0.3874088219845362,0,0,10.782212917946708
22,24,female,49,105,55,left,change,valid,anti,1,2.4654182658168793,0,f,0,same,0.7982594789536961,0.29496594513991453,0,0,0,0.3874912518494966,0,0,6.305414198849576
22,24,female,50,75,45,right,change,catch,clock,2,8.097357369069869,1,f,0,same,1.080801795624211,0,0,0,0,0.38752460868181515,0,0,13.87946283952624
22,24,female,51,45,45,left,same,valid,clock,1,1.6721366526799102,0,j,0,change,0.9110004419781035,0.29612836223341277,0,0,0,0.38741844414744264,0,0,5.868314280381128
22,24,female,52,135,135,right,same,valid,clock,1,1.5534710029696726,0,j,0,change,0.9852697509331847,0.2974028744196563,0,0,0,0.3874665549637939,0,0,5.3851527454280586
22,24,female,53,15,115,right,same,catch,clock,1,2.545484928165024,0,j,0,change,0.7223649866155029,0,0,0,0,0.3875496263071909,0,0,7.530398338316445
22,24,female,54,75,125,left,change,valid,clock,2,1.6645280874154196,1,f,0,same,0.4165812966957674,0.29873737365614794,0,0,0,0.3875088924824013,0,0,5.08210688170675
22,24,female,55,15,65,left,change,valid,clock,1,1.633471913867652,0,f,0,same,0.7577241915942068,0.29825858634189234,0,0,0,0.3875396834046114,0,0,5.41830430540449
22,24,female,56,165,355,right,same,catch,anti,1,4.40149759349697,0,f,1,same,1.0097405159149275,0,0,0,0,0.3874659134862668,0,0,9.870364121904458
22,24,female,57,165,165,left,same,valid,anti,1,2.5363374582475444,0,f,1,same,0.5341121726141864,0.29964572070699946,0,0,0,0.387424217446096,0,0,6.671992320229947
22,24,female,58,15,65,right,change,valid,clock,2,5.017396550518242,1,j,1,change,1.5664371887633024,0.30107340798282595,0,0,0,0.387390860612868,0,0,9.568441806118244
22,24,female,1,165,135,left,same,catch,clock,1,1.1038282738927592,0,j,0,change,1.4282738288065957,0,0,0,0,0.38750151549083967,0,0,7.2287069544508995
22,24,female,2,105,105,right,same,valid,clock,2,1.9186237612275363,1,j,0,change,0.9889386818022103,0.3005719711849588,0,0,0,0.38742036858002393,0,0,5.78400648918705
22,24,female,3,135,65,left,same,catch,anti,1,2.225463323200529,0,f,1,same,0.9097627110386384,0,0,0,0,0.3874944592371321,0,0,7.842529448631467
22,24,female,4,45,95,left,change,valid,clock,1,4.399687985316632,0,f,0,same,0.840238411547034,0.3000572503503983,0,0,0,0.38748419559669856,0,0,8.042255730159013
22,24,female,5,135,135,right,same,valid,clock,2,3.729447861025619,1,j,0,change,0.6503790170118009,0.30143582745484454,0,0,0,0.38747681860513694,0,0,7.486814749621772
22,24,female,6,45,355,right,change,valid,anti,1,1.9215549929085682,0,j,1,change,1.0062005220352148,0.3009513010507252,0,0,0,0.38746623422412085,0,0,5.805463592620072
22,24,female,7,15,325,left,change,valid,anti,1,4.649479986221195,0,f,0,same,0.4717727424631448,0.302241731464351,0,0,0,0.38742389670733246,0,0,8.361032547929426
22,24,female,8,135,135,left,change,catch,clock,2,3.7374576705005893,1,j,1,change,0.7906582906798576,0,0,0,0,0.3875852283126733,0,0,9.15282817831212
22,24,female,9,105,155,left,change,valid,clock,1,3.7998214767976606,0,f,0,same,0.6048353936530475,0.3034400181999173,0,0,0,0.3874367262578744,0,0,7.7834374985959585
22,24,female,10,105,105,right,same,valid,anti,2,2.585437112427826,1,j,0,change,0.6585187256914651,0.30458187137191195,0,0,0,0.38748483707422565,0,0,6.2138795215360005
22,24,female,11,15,15,left,same,valid,anti,1,1.3455097533460503,0,j,0,change,1.0522210839553736,0.3041522202730347,0,0,0,0.38752204277261626,0,0,5.412133612075195
22,24,female,12,75,25,right,change,valid,anti,2,4.233467359375936,1,j,1,change,0.8228870851962711,0.3052674926350417,0,0,0,0.38756566324627784,0,0,8.589697164861718
22,24,female,13,165,115,right,change,valid,anti,2,3.39336462033134,1,f,0,same,1.330172025034699,0.3048683119793801,0,0,0,0.38743961290674633,0,0,8.160259054295238
22,24,female,14,75,75,right,same,valid,clock,2,1.1453819068683515,1,j,0,change,0.40405901336816896,0.3044451147995974,0,0,0,0.3874261418786773,0,0,4.895924757249304
22,24,female,15,135,85,left,change,valid,anti,2,2.7694253836525604,1,f,0,same,0.9880348399292416,0.30402378857363066,0,0,0,0.3874312736988941,0,0,7.08521002937232
22,24,female,16,105,55,right,change,valid,anti,2,2.4094673106246773,1,j,1,change,0.7240610532680876,0.3036026927641635,0,0,0,0.3874758563888463,0,0,6.137155277981947
22,24,female,17,105,155,right,change,valid,clock,2,2.201416574882387,1,j,1,change,0.9060511219122418,0.3031802145214839,0,0,0,0.38751209987094626,0,0,6.205048620791786
22,24,female,18,75,75,left,same,valid,anti,2,2.4894127337138343,1,f,1,same,0.7113302897359972,0.30275475683286635,0,0,0,0.38749157258826017,0,0,6.298589198417176
22,24,female,19,165,165,left,same,valid,anti,2,1.4974453156428353,1,f,1,same,0.7765746509885503,0.302324727115553,0,0,0,0.38747008308928343,0,0,5.226534269975673
22,24,female,20,105,15,right,same,catch,clock,1,2.0974644958205317,0,j,0,change,0.7119631073419441,0,0,0,0,0.3875784927968198,0,0,7.031988240434657
22,24,female,21,75,125,left,change,valid,clock,2,1.752469848952387,1,f,0,same,0.6285989296302432,0.30188852612073314,0,0,0,0.3874979873653501,0,0,5.354314032769253
22,24,female,22,105,105,left,same,valid,clock,1,3.5134088053055166,0,f,1,same,1.162458680826603,0.3014445370243428,0,0,0,0.38743832995169214,0,0,7.610183712755315
22,24,female,23,135,135,right,same,valid,anti,1,1.8331334061622329,0,j,0,change,0.9912496046908927,0.30262374891057975,0,0,0,0.3874335188702389,0,0,6.388115730247591
22,24,female,24,45,95,right,change,valid,clock,1,1.9613734291015135,0,f,0,same,1.1220991583159048,0.30372776394138923,0,0,0,0.38741395380566246,0,0,5.910404188591201
22,24,female,25,105,105,left,same,valid,anti,2,1.033383133375537,1,f,1,same,2.842462734965011,0.30478709867436604,0,0,0,0.387533589368104,0,0,7.124200318045041
22,24,female,26,45,45,right,same,valid,anti,2,1.0254717907027953,1,j,0,change,0.8694371868386952,0.3043863010040201,0,0,0,0.3874752149113192,0,0,4.8421185822571715
22,24,female,27,15,325,right,change,valid,anti,2,0.9214661482674273,1,j,1,change,0.8048545096826274,0.3039868757284393,0,0,0,0.38748483707422565,0,0,4.8609491558472655
22,24,female,28,105,55,left,change,valid,anti,2,1.817420413482978,1,j,1,change,1.3151964108055836,0.3035873405060276,0,0,0,0.3874963836715324,0,0,5.952272466307477
22,24,female,29,165,75,left,change,catch,clock,2,0.6654784364109219,1,j,1,change,0.5009728007098602,0,0,0,0,0.3875124206078908,0,0,6.033486090522274
22,24,female,30,15,15,right,same,valid,clock,2,0.784343264902418,1,j,0,change,0.76371174308224,0.30318623463195116,0,0,0,0.3874418580780912,0,0,4.904509009873436
22,24,female,31,15,65,right,change,valid,clock,2,3.07339786169905,1,j,1,change,1.1768640215123014,0.3027821089021952,0,0,0,0.38751402430352755,0,0,7.332200377060872
22,24,female,32,45,45,left,same,valid,clock,2,8.433351765121188,1,f,1,same,2.7005589193922788,0.3023735158177484,0,0,0,0.3875473811349366,0,0,14.80694251912064
22,24,female,33,15,115,right,same,catch,clock,1,1.713425355426807,0,j,0,change,0.7658064880324673,0,0,0,0,0.38746880013422924,0,0,6.876060763319401
22,24,female,34,165,165,left,same,valid,clock,2,2.239786554759121,1,f,1,same,0.8579884161972586,0.3019590000217558,0,0,0,0.3875361552800314,0,0,6.537436630036609
22,24,female,35,135,185,right,change,valid,clock,2,1.0495041057765775,1,j,1,change,0.6802157417296257,0.3015370888687139,0,0,0,0.3874652720096492,0,0,4.791025857319255
22,24,female,36,165,215,left,change,valid,clock,2,4.88945802202943,1,f,0,same,0.6383484262314596,0.301106283029448,0,0,0,0.3874399336455099,0,0,8.608823459602718
22,24,female,37,75,45,right,change,catch,clock,1,1.8414572188994498,0,j,1,change,0.4576345771802153,0,0,0,0,0.3875098546996014,0,0,6.766735347529902
22,24,female,38,135,185,left,change,valid,clock,2,2.111984981727801,1,f,0,same,0.6199139650288998,0.3006650470388611,0,0,0,0.3874421788168547,0,0,5.928751408846438
22,24,female,39,105,15,left,change,catch,clock,2,1.7374833296034922,1,f,0,same,0.9059218641850748,0,0,0,0,0.38743255665394827,0,0,7.4687391951119935
22,24,female,40,165,355,right,same,catch,anti,2,1.816439594304029,1,j,0,change,0.684731422970799,0,0,0,0,0.38743383960900246,0,0,7.483158327566343
22,24,female,41,75,25,left,change,valid,anti,2,3.072304783947402,1,f,0,same,0.5749771794344269,0.3002117996953659,0,0,0,0.3874572535387415,0,0,6.891158258285941
22,24,female,42,165,215,right,change,valid,clock,1,1.1774237106783403,0,j,1,change,0.2715464291832177,0.2997490264303942,0,0,0,0.38743448108652956,0,0,4.458756842159346
22,24,female,43,165,165,right,same,valid,clock,1,0.7294754445611034,0,j,0,change,0.6185476178416138,0.30099907763037637,0,0,0,0.3875050436181482,0,0,4.603847518219482
22,24,female,44,75,75,left,same,valid,clock,2,2.5853030436173867,1,f,1,same,2.356257389019447,0.30213739394629174,0,0,0,0.3874601401894324,0,0,7.777103228492706
22,24,female,45,45,45,right,same,valid,clock,2,1.2651188240943156,1,j,0,change,0.4345888545849448,0.3017316220482833,0,0,0,0.3874027279471193,0,0,4.726830311867161
22,24,female,46,45,355,left,change,valid,anti,2,2.6735142257257394,1,f,0,same,1.4569741760369652,0.3013177572477162,0,0,0,0.3874864407680434,0,0,7.230709005894823
22,24,female,47,15,15,right,same,valid,anti,2,2.4014546145008353,1,j,0,change,1.6618136751458223,0.30089436487843113,0,0,0,0.38745885723255924,0,0,7.046643757365018
22,24,female,48,15,65,left,change,valid,clock,2,0.5374141783231607,1,f,0,same,0.6008729868026421,0.3004599702175865,0,0,0,0.38749285554331436,0,0,3.8578796857527777
22,24,female,49,165,165,right,same,valid,anti,2,4.769482795893055,1,j,0,change,0.6294806405276177,0.3000130495662036,0,0,0,0.3873523719594232,0,0,8.56350403264878
22,24,female,50,75,75,right,same,valid,anti,1,1.3614902421631996,0,j,0,change,0.5704348768776981,0.2995661090948971,0,0,0,0.38743031148260343,0,0,4.909828462488804
22,24,female,51,15,15,left,same,valid,clock,2,2.0654464266826835,1,f,1,same,0.5399842581409757,0.30079199429243275,0,0,0,0.38743031148260343,0,0,5.562518723125322
22,24,female,52,165,115,left,change,valid,anti,2,1.3935089527822129,1,j,1,change,0.2476157883011183,0.3003606808517185,0,0,0,0.3875396834064304,0,0,4.831507581302503
22,24,female,53,75,125,right,change,valid,clock,1,3.4814638646075764,0,j,1,change,0.5955570623154927,0.2999167691768475,0,0,0,0.3873982376062486,0,0,7.274600824555819
22,24,female,54,135,135,left,same,valid,anti,2,1.2175154163105617,1,f,1,same,0.18042261824120942,0.30110875245041085,0,0,0,0.3874466691595444,0,0,4.587048183302613
22,24,female,55,45,45,left,same,valid,anti,1,3.209495984670866,0,j,0,change,0.8565935232581978,0.30069182574959963,0,0,0,0.38747489417255565,0,0,7.335600849573893
22,24,female,56,105,45,right,change,catch,anti,1,4.2254835297426325,0,j,1,change,0.7917901778237137,0,0,0,0,0.38743768847416504,0,0,9.573779861580988
22,24,female,57,135,135,left,same,valid,clock,1,0.8957926128732652,0,j,0,change,1.1295771828990837,0.3018060689610427,0,0,0,0.38750343992251146,0,0,4.97483483556789
22,24,female,58,135,85,right,change,valid,anti,1,0.33746530408279796,0,j,1,change,0.31584013352949114,0.3028324662626686,0,0,0,0.38745115950405307,0,0,4.044480695054517
22,24,female,1,135,135,left,same,valid,anti,2,1.640022041168777,1,f,1,same,0.7672408318430826,0.3037979980444916,0,0,0,0.3875255708990153,0,0,5.553206393478831
22,24,female,2,15,65,left,change,valid,clock,2,1.8094734688093013,1,f,0,same,1.1689796208993357,0.3034409859212727,0,0,0,0.38745564984674274,0,0,5.760339816319174
22,24,female,3,105,55,right,change,valid,anti,2,2.017136110631327,1,f,0,same,1.1373053837287443,0.30308171449915333,0,0,0,0.38745564984492376,0,0,6.530197235102605
22,24,female,4,135,85,left,change,valid,anti,1,4.937448240780213,0,j,1,change,0.918429714267404,0.30271900724108236,0,0,0,0.3875566825608985,0,0,8.64069527186075
22,24,female,5,105,55,left,change,valid,anti,1,2.417433499625986,0,f,0,same,0.6311946685527801,0.30367430435687753,0,0,0,0.3874864407680434,0,0,6.021183513255892
22,24,female,6,15,325,left,change,valid,anti,1,1.489463410442113,0,f,0,same,0.9155164439562213,0.3045903066307335,0,0,0,0.38749670441029593,0,0,5.638138021591658
22,24,female,7,105,155,right,change,valid,clock,1,0.40945865067806153,0,j,1,change,0.5090688889158628,0.30548831909855423,0,0,0,0.38747617712760984,0,0,3.693333636967509
22,24,female,8,135,185,right,change,valid,clock,2,4.3934964439704345,1,j,1,change,1.086819817293872,0.30646071174450995,0,0,0,0.3874428202943818,0,0,8.450797067935127
22,24,female,9,105,105,left,same,valid,clock,2,1.9214283010915096,1,f,1,same,1.1798167426932196,0.30612755640653116,0,0,0,0.3874453862044902,0,0,6.201653600839563
22,24,female,10,45,95,left,change,valid,clock,2,1.7134632026027248,1,f,0,same,0.9183142483070696,0.30580031707165933,0,0,0,0.38752653311530594,0,0,5.8391770869347965
22,24,female,11,15,15,right,same,valid,anti,2,1.137392303937304,1,j,0,change,0.5646455419555423,0.3054779745430213,0,0,0,0.38751723169116303,0,0,4.515836797845623
22,24,female,12,15,15,left,same,valid,clock,2,0.7294257300491154,1,f,1,same,0.9414962848841242,0.30515954841091597,0,0,0,0.38745757427750505,0,0,4.734176512811246
22,24,female,13,45,355,left,change,valid,anti,2,2.185499271601657,1,f,0,same,1.1009522092808766,0.3048440911740388,0,0,0,0.3875111376546556,0,0,6.31044883542927
22,24,female,14,165,115,right,change,valid,anti,2,3.017507526134068,1,j,1,change,0.5762639834101719,0.30450899677927995,0,0,0,0.3875076095282566,0,0,6.613963298503222
22,24,female,15,165,115,left,change,valid,anti,1,1.433482947280936,0,f,0,same,0.7762667417609919,0.3041749762691867,0,0,0,0.38748547855175275,0,0,5.446958466252909
22,24,female,16,15,65,right,change,valid,clock,1,0.6414666486198257,0,j,1,change,0.42431559156102594,0.30504365917223153,0,0,0,0.3874614231426676,0,0,3.873172189894831
22,24,female,17,105,105,right,same,valid,clock,2,2.1854534059584694,1,j,0,change,0.7971542131290335,0.3059738581989745,0,0,0,0.3874732904787379,0,0,6.011527993117852
22,24,female,18,165,165,left,same,valid,anti,2,4.969301450188141,1,f,1,same,0.7704065235702728,0.3056589379653972,0,0,0,0.3875210805563256,0,0,8.900305728202511
22,24,female,19,15,115,right,same,catch,clock,2,1.1695293671637046,1,j,0,change,1.004337671218309,0,0,0,0,0.38749734588600404,0,0,6.735494107708291
22,24,female,20,75,25,right,change,valid,anti,2,1.3340606619658502,1,j,1,change,0.7741232445168862,0.3053482955697535,0,0,0,0.38746687570164795,0,0,5.242673845226818
22,24,female,21,45,45,right,same,valid,anti,2,2.5774487924500136,1,f,1,same,1.3719084791136993,0.30504101890502067,0,0,0,0.38740112425330153,0,0,7.079412996721658
22,24,female,22,165,165,left,same,valid,clock,2,1.17738201463726,1,f,1,same,0.7858122485013155,0.3047362241157251,0,0,0,0.3875044021406211,0,0,4.939706562508945
22,24,female,23,165,165,right,same,valid,anti,2,1.2174458159952337,1,j,0,change,1.550977258979401,0.30441203284841867,0,0,0,0.3874983081041137,0,0,5.768326853341932
22,24,female,24,75,75,left,same,valid,anti,2,1.8494259738108667,1,j,0,change,0.954349570627528,0.30408850489213757,0,0,0,0.38750728878767404,0,0,6.395331390511274
22,24,female,25,75,75,right,same,valid,clock,2,1.5374109709337063,1,j,0,change,1.2861252895472717,0.30376463079286886,0,0,0,0.3874713660461566,0,0,5.493846305826082
22,24,female,26,45,45,right,same,valid,clock,2,2.7134728247656312,1,j,0,change,0.751683076730842,0.3034394116816126,0,0,0,0.3874075390285725,0,0,6.913728325276679
22,24,female,27,105,15,right,same,catch,clock,1,3.0174693582212058,0,j,0,change,1.7543477744893607,0,0,0,0,0.38751594873428985,0,0,9.465385550462088
22,24,female,28,15,15,left,same,valid,anti,1,0.4241420718826703,0,j,0,change,0.42850572294264566,0.3031118536320611,0,0,0,0.3875104961753095,0,0,3.9711023984200438
22,24,female,29,165,355,right,same,catch,anti,2,1.1455041083427204,1,f,1,same,0.39833478841865144,0,0,0,0,0.38747489417255565,0,0,5.877791149021505
22,24,female,30,165,135,left,same,catch,clock,2,1.720130720295856,1,j,0,change,0.27623883748856315,0,0,0,0,0.38743512256405666,0,0,6.564208375002636
22,24,female,31,165,75,left,change,catch,clock,2,3.9844621306929184,1,j,1,change,0.37932909145638405,0,0,0,0,0.38746687570346694,0,0,9.137323345101322
22,24,female,32,75,125,left,change,valid,clock,2,1.1125725751680875,1,j,1,change,0.24814821467225556,0.3039724002710186,0,0,0,0.38747938451524533,0,0,4.676162565807317
22,24,female,33,135,135,left,same,valid,clock,1,1.6494475916042575,0,f,1,same,0.25858216782216914,0.3036527798398727,0,0,0,0.38751274134847336,0,0,5.090222855717002
22,24,female,34,45,355,right,change,valid,anti,1,1.2494693376938812,0,j,1,change,0.6461991492724337,0.3044884419105863,0,0,0,0.3874617438814312,0,0,4.731640431304186
22,24,female,35,135,135,right,same,valid,anti,2,2.681513130082749,1,j,0,change,0.25714814475213643,0.30530603835221815,0,0,0,0.3874614231444866,0,0,6.003798188594374
22,24,female,36,105,155,left,change,valid,clock,2,4.137377549954181,1,j,1,change,1.4617063559508097,0.3050122169566639,0,0,0,0.38745564984492376,0,0,8.476205673099685
22,24,female,37,15,15,right,same,valid,clock,2,0.8494054465281806,1,j,0,change,0.31745601548755076,0.3047206200744169,0,0,0,0.3874428202943818,0,0,4.092791973320345
22,24,female,38,75,125,right,change,valid,clock,1,0.8494538780851144,0,f,0,same,0.4616210394378868,0.30441032968082643,0,0,0,0.3874601401894324,0,0,3.9479351158279314
22,24,female,39,135,65,left,same,catch,anti,2,1.5855054297862807,1,f,1,same,0.5060215497978788,0,0,0,0,0.38750664731196593,0,0,6.330001712745798
22,24,female,40,165,215,right,change,valid,clock,2,4.024263567731396,1,j,1,change,2.030810166905212,0.30521590518236913,0,0,0,0.3875274953315966,0,0,9.289291943490753
22,24,female,41,135,185,left,change,valid,clock,2,1.465489790563879,1,j,1,change,0.4419812419146183,0.3049270506886651,0,0,0,0.38744955580841633,0,0,5.165541942689742
22,24,female,42,165,215,left,change,valid,clock,1,1.0335046933705598,0,j,1,change,0.3798778755026433,0.3046203051048033,0,0,0,0.38753134419857815,0,0,4.463952489606527
22,24,female,43,75,25,left,change,valid,anti,1,0.36952442778601835,0,j,1,change,0.49594233373318275,0.3054151136466403,0,0,0,0.3874399336455099,0,0,4.034075608393323
22,24,female,44,135,135,right,same,valid,clock,2,0.3054382542577514,1,j,0,change,0.36684016496292315,0.3062751748336412,0,0,0,0.3875076095264376,0,0,3.6639825107558863
22,24,female,45,105,45,right,change,catch,anti,2,0.665466248337907,1,j,1,change,0.6926418034236121,0,0,0,0,0.3874174819320615,0,0,5.877371943439357
22,24,female,46,75,75,right,same,valid,anti,2,4.032246755887172,1,j,0,change,1.4995342872953188,0.3059813541375792,0,0,0,0.3875230049889069,0,0,8.738112939821804
22,24,female,47,75,75,left,same,valid,clock,2,1.5534466268218239,1,j,0,change,0.8822792467253748,0.3056922478933054,0,0,0,0.38741170863249863,0,0,5.368691469182522
22,24,female,48,165,165,right,same,valid,clock,2,0.7375211767775909,1,f,1,same,0.6874397412011604,0.30540704525062884,0,0,0,0.38746559274659376,0,0,4.120954441623326
22,24,female,49,45,45,left,same,valid,anti,1,1.4974084306832083,0,f,1,same,0.5375883394772245,0.30512496295328523,0,0,0,0.387420689319697,0,0,5.049275098290309
22,24,female,50,135,135,left,change,catch,clock,1,1.2734968416862102,0,j,1,change,0.30807921734594856,0,0,0,0,0.3874819504253537,0,0,6.205301683687139
22,24,female,51,105,105,right,same,valid,anti,1,0.43198060685062956,0,j,0,change,1.7569855301899224,0.3059645964657087,0,0,0,0.3874421788168547,0,0,5.343323918579699
22,24,female,52,45,95,right,change,valid,clock,2,1.137436245149729,1,f,0,same,0.44021525420794205,0.3068188291299123,0,0,0,0.3875050436163292,0,0,4.230261575301483
22,24,female,53,15,325,right,change,valid,anti,2,1.6014875222990668,1,f,0,same,0.533067847156417,0.3065228535374287,0,0,0,0.3874094634611538,0,0,5.337905036947632
22,24,female,54,75,45,right,change,catch,clock,1,0.7294545965396537,0,j,1,change,0.23045369782994385,0,0,0,0,0.3874280663112586,0,0,5.393931365751996
22,24,female,55,45,45,left,same,valid,clock,2,0.6405551090174413,1,f,1,same,0.8292155820017797,0.30623295813892804,0,0,0,0.3874174819320615,0,0,4.778645661270275
22,24,female,56,105,105,left,same,valid,anti,2,2.505476614614963,1,j,0,change,0.8355027035067906,0.3059483140113091,0,0,0,0.38745885723255924,0,0,6.227763340970341
22,24,female,57,135,85,right,change,valid,anti,2,0.8094667332952667,1,j,1,change,0.4379723279416794,0.30566812591053794,0,0,0,0.38748932741691533,0,0,4.233873735407542
22,24,female,58,105,15,left,change,catch,clock,2,0.7454193691573892,1,j,1,change,0.5998921676236932,0,0,0,0,0.38749285554331436,0,0,5.7530179915193
22,24,female,1,105,155,left,change,valid,clock,2,1.6316895684849442,1,f,0,same,0.8591921488277876,0.30539162796402536,0,0,0,0.3874527631978708,0,0,5.361361305176615
22,24,female,2,165,165,right,same,valid,anti,1,1.7454697251450852,0,j,0,change,0.5074684024202725,0.30511807964210824,0,0,0,0.38749349702084146,0,0,5.037290373154974
22,24,female,3,15,325,right,change,valid,anti,2,2.6974926566872455,1,j,1,change,0.584767409862252,0.3059324868496642,0,0,0,0.3875185146462172,0,0,6.3254234874439135
22,24,female,4,165,165,right,same,valid,clock,2,2.1531611051632353,1,j,0,change,0.5591589844370901,0.30565657762015314,0,0,0,0.3875528336939169,0,0,5.581805066516608
22,24,female,5,135,85,left,change,valid,anti,2,0.9934440994002216,1,j,1,change,0.565044861732531,0.3053842583844161,0,0,0,0.3874720075236837,0,0,4.524122121931214
22,24,female,6,75,75,left,same,valid,anti,1,1.3695058249377325,0,j,0,change,0.5138029932641075,0.3051148086588966,0,0,0,0.3874845163354621,0,0,4.615093261214497
22,24,female,7,15,65,right,change,valid,clock,2,2.001458719956645,1,j,1,change,0.28922138096095296,0.30591709614670615,0,0,0,0.3875290990254143,0,0,5.260183616535869
22,24,female,8,165,355,right,same,catch,anti,2,0.39343903172812134,1,j,0,change,0.7018437989336235,0,0,0,0,0.3874521217203437,0,0,5.690459817526062
22,24,female,9,135,85,right,change,valid,anti,2,0.912439596870172,1,j,1,change,0.2513347544208955,0.3056453521354592,0,0,0,0.387430632221367,0,0,4.194317984272857
22,24,female,10,135,135,right,same,valid,clock,1,0.8334175807176507,0,j,0,change,0.5154432513663778,0.3053771020191792,0,0,0,0.3874832333804079,0,0,4.212898381616469
22,24,female,11,45,355,left,change,valid,anti,2,0.49745140967934276,1,j,1,change,0.46855733622578555,0.3061739188309678,0,0,0,0.3874771393439005,0,0,3.5754133841728617
22,24,female,12,15,115,right,same,catch,clock,2,0.7134702588555228,1,j,0,change,0.5248408975312486,0,0,0,0,0.38748740298433404,0,0,5.643540866291005
22,24,female,13,15,15,left,same,valid,anti,1,1.2161577290680725,0,f,1,same,0.7281982627500838,0.30590212408546824,0,0,0,0.38750215696927626,0,0,5.22548417122016
22,24,female,14,105,55,right,change,valid,anti,2,0.30547257330727007,1,j,1,change,0.22940616498453892,0.3067056359347697,0,0,0,0.38750728878767404,0,0,3.4857742730291648
22,24,female,15,105,155,right,change,valid,clock,2,1.1615205199050251,1,j,1,change,0.502832123400367,0.30642773740591467,0,0,0,0.3874970251490595,0,0,4.7179715068486985
22,24,female,16,15,15,left,same,valid,clock,1,1.6015061251473526,0,f,1,same,0.27278993342224567,0.30615529003958797,0,0,0,0.3875149865198182,0,0,4.845552411603421
22,24,female,17,15,15,right,same,valid,clock,2,1.5855253155896207,1,j,0,change,1.0337221542613406,0.3069589469688343,0,0,0,0.3874123501100257,0,0,5.624201921738859
22,24,female,18,165,115,right,change,valid,anti,2,2.1455432384736923,1,j,1,change,0.4283075063776778,0.3066792051694354,0,0,0,0.38743255665394827,0,0,5.903181792815303
22,24,female,19,165,215,left,change,valid,clock,1,0.8254545991057967,0,f,0,same,0.7515477249671676,0.3064055239028029,0,0,0,0.3874845163354621,0,0,4.7648959106445545
22,24,female,20,45,45,left,same,valid,clock,2,0.6655419426879234,1,j,0,change,0.46669224023753486,0.30721108896150456,0,0,0,0.3874963836715324,0,0,3.981949142376834
22,24,female,21,135,65,left,same,catch,anti,2,0.8654584223113488,1,j,0,change,0.6774067115220532,0,0,0,0,0.3874287077887857,0,0,5.893235041867229
22,24,female,22,45,95,left,change,valid,clock,1,1.0243411865139933,0,j,1,change,0.3169251928120502,0.3069289415649774,0,0,0,0.3874514802409976,0,0,4.4162207863100775
22,24,female,23,165,115,left,change,valid,anti,1,1.9373712634733238,0,j,1,change,2.970694739435203,0.30775583968987313,0,0,0,0.3874181234095886,0,0,8.199954326799343
22,24,female,24,75,125,right,change,valid,clock,2,1.2334429832299065,1,j,1,change,0.4716441262153239,0.30863593197094835,0,0,0,0.3874745734337921,0,0,4.504986525764252
22,24,female,25,165,135,left,same,catch,clock,2,1.3535282227676362,1,f,1,same,0.2624666351493943,0,0,0,0,0.3875602106872975,0,0,6.236240787580755
22,24,female,26,75,75,right,same,valid,anti,1,2.3200985822695657,0,j,0,change,0.9316293978899921,0.3083184252315103,0,0,0,0.3874851578129892,0,0,6.249630669297403
22,24,female,27,165,165,left,same,valid,anti,2,1.689503053754379,1,f,1,same,0.5408396684597392,0.3092397772155313,0,0,0,0.38746880013604823,0,0,5.664152181569079
22,24,female,28,105,45,right,change,catch,anti,2,1.865515193076135,1,j,1,change,1.0277326783434546,0,0,0,0,0.3875230049889069,0,0,7.421816074273011
22,24,female,29,75,75,left,same,valid,clock,1,1.8160104458220303,0,f,1,same,0.5801632047187013,0.30890396008292764,0,0,0,0.38745308393481537,0,0,5.197360191570624
22,24,female,30,165,165,left,same,valid,clock,2,0.6094864266560762,1,f,1,same,0.406453649076866,0.30987509202353336,0,0,0,0.3874498765489989,0,0,3.720764820858676
22,24,female,31,105,55,left,change,valid,anti,2,0.36914050346967997,1,f,0,same,0.36040422066616884,0.30951778258897344,0,0,0,0.3874485935939447,0,0,3.6147927289803192
22,24,female,32,135,135,left,same,valid,anti,2,0.4334800606320641,1,j,0,change,0.9160318711710715,0.30917464163432246,0,0,0,0.38740401090217347,0,0,4.217635372611767
22,24,female,33,135,135,right,same,valid,anti,2,0.5135524962788622,1,j,0,change,0.44967833108057675,0.30884452832130316,0,0,0,0.38751787316869013,0,0,4.133010370767806
22,24,female,34,15,325,left,change,valid,anti,1,1.8254709567827376,0,f,0,same,0.5896192253385379,0.3085263744964062,0,0,0,0.38752332572767045,0,0,5.23777295671789
22,24,female,35,75,25,right,change,valid,anti,2,2.03352008883121,1,j,1,change,1.8567968716433825,0.30944847824413796,0,0,0,0.3874136330650799,0,0,6.6984478167632915
22,24,female,36,135,135,left,same,valid,clock,1,4.337400835587687,0,j,0,change,0.6500040733826609,0.3091112198229325,0,0,0,0.3874659134853573,0,0,8.108764122929642
22,24,female,37,165,215,right,change,valid,clock,2,1.6335392690107255,1,j,1,change,0.30967104389674205,0.3100839551886797,0,0,0,0.3874918933270237,0,0,5.059637526692313
22,24,female,38,105,15,right,same,catch,clock,1,0.4095670603837789,0,j,0,change,0.09072609485701832,0,0,0,0,0.3875088924833108,0,0,5.03521840065514
22,24,female,39,75,45,right,change,catch,clock,1,1.776270911366737,0,j,1,change,0.364902261273528,0,0,0,0,0.38746559274841275,0,0,6.76694254478025
22,24,female,40,135,135,left,change,catch,clock,2,2.079718019296706,1,j,1,change,1.5157835552090546,0,0,0,0,0.3874806674702995,0,0,8.24821011725544
22,24,female,41,45,45,left,same,valid,anti,1,1.2239446250914625,0,j,0,change,2.552033451771422,0.30972596439841094,0,0,0,0.387490289633206,0,0,7.097188660472966
22,24,female,42,105,105,left,same,valid,clock,2,0.697469563494451,1,j,0,change,0.6759983475531044,0.3106987176341329,0,0,0,0.3874527631960518,0,0,4.342497695490238
22,24,female,43,105,105,left,same,valid,anti,2,0.4174456876990007,1,j,0,change,0.6511240931922657,0.3103585099516552,0,0,0,0.3874373677354015,0,0,3.8525435547217057
22,24,female,44,135,185,right,change,valid,clock,1,0.8335394614532561,0,j,1,change,0.37760800718024257,0.31000751112431085,0,0,0,0.38743832995169214,0,0,4.326150922988745
22,24,female,45,165,75,left,change,catch,clock,1,1.9294631281918555,0,j,1,change,0.5804457755803014,0,0,0,0,0.38748612002927985,0,0,6.860454255915101
22,24,female,46,45,45,right,same,valid,clock,2,0.463744971619235,1,j,0,change,0.2430000365638989,0.31095101481595067,0,0,0,0.3874886859412072,0,0,4.258170339233402
22,24,female,47,15,15,right,same,valid,anti,2,0.6254746132053697,1,f,1,same,0.23980387465235253,0.3106216095508461,0,0,0,0.38740465237970056,0,0,3.669820918710684
22,24,female,48,45,95,right,change,valid,clock,2,0.4814000375899923,1,j,1,change,0.8486578044412454,0.31028222133999483,0,0,0,0.38744314103314537,0,0,4.106964778391557
22,24,female,49,105,105,right,same,valid,anti,1,4.705438959883395,0,j,0,change,0.9579848239227431,0.30993172710032435,0,0,0,0.3874790637764818,0,0,8.674853310121762
22,24,female,50,15,65,left,change,valid,clock,2,0.6415307963761734,1,j,1,change,0.3272180209005455,0.3108739925000202,0,0,0,0.38752075981756207,0,0,4.0639934800219635
22,24,female,51,105,105,right,same,valid,clock,2,0.5456019978173572,1,j,0,change,0.10968560543733474,0.3105454625174119,0,0,0,0.3874890066781518,0,0,3.4310963300413277
22,24,female,52,75,125,left,change,valid,clock,2,0.4174485743496916,1,j,1,change,0.3502582909368357,0.3102068043243249,0,0,0,0.38749606293276884,0,0,3.613591883000481
22,24,female,53,45,355,right,change,valid,anti,1,0.4975280662474688,0,j,1,change,0.3073710261269298,0.3098578297267372,0,0,0,0.38741459528318956,0,0,3.912939628624372
22,24,female,54,135,185,left,change,valid,clock,2,0.5375049473968829,1,j,1,change,0.766636880725855,0.3107979697661045,0,0,0,0.3874299907438399,0,0,4.16395653091422
22,24,female,55,45,45,right,same,valid,anti,2,0.24945137632312253,1,j,0,change,0.2926388526284427,0.3104702250892969,0,0,0,0.3874447447287821,0,0,3.4935031153363525
22,24,female,56,75,75,right,same,valid,clock,1,0.35355644778064743,0,j,0,change,0.181713271080298,0.310132211013689,0,0,0,0.3874585364937957,0,0,3.589879023747926
22,24,female,57,105,15,left,change,catch,clock,2,0.36951063601918577,1,j,1,change,0.7770268926633435,0,0,0,0,0.3874800259927724,0,0,5.441002347166432
22,24,female,58,75,25,left,change,valid,anti,1,0.7521712411507906,0,j,1,change,0.35174363221267413,0.3110404243242646,0,0,0,0.38742165153416863,0,0,4.042911320217172
22,24,female,1,15,15,right,same,valid,clock,2,3.8724665645859204,1,f,1,same,1.1081986604676786,0.3118662225491283,0,0,0,0.3874857992905163,0,0,8.313016028600032
22,24,female,2,75,75,right,same,valid,anti,2,1.6654980014773173,1,f,1,same,1.1536242519559892,0.31157343915482194,0,0,0,0.38745500836739666,0,0,6.292632758590116
22,24,female,3,45,45,left,same,valid,anti,2,2.897460775251602,1,f,1,same,0.9253557474130503,0.31127345824516905,0,0,0,0.3874707245686295,0,0,6.9885149858782825
22,24,female,4,15,325,right,change,valid,anti,1,2.2335206020125042,0,j,1,change,1.0649046988874034,0.31096548972867744,0,0,0,0.38743512256405666,0,0,6.086832005366887
22,24,female,5,45,95,right,change,valid,clock,2,2.177442955004153,1,f,0,same,1.1440101071202662,0.3117893218820246,0,0,0,0.3874194063628238,0,0,6.281449238918867
22,24,female,6,45,45,left,same,valid,clock,1,3.45747645296251,0,f,1,same,0.8200604143567034,0.31149765862398804,0,0,0,0.3874287077887857,0,0,6.96111042330449
22,24,female,7,135,85,right,change,valid,anti,2,2.0894845150523906,1,j,1,change,0.468477472270024,0.31227530933925685,0,0,0,0.38747746008266404,0,0,5.513314508105395
22,24,female,8,75,25,right,change,valid,anti,2,2.225496680033757,1,j,1,change,0.6656179577803414,0.3119974534039245,0,0,0,0.3874899688944424,0,0,6.062146024665708
22,24,female,9,75,75,right,same,valid,clock,1,1.089480024709701,0,f,1,same,1.1166395428572287,0.3117135714151402,0,0,0,0.38750953396083787,0,0,5.46327156118241
22,24,female,10,105,15,left,change,catch,clock,3,0.9853592370527622,1,f,0,same,1.3525878166728944,0,0,0,0,0.3875181939056347,0,0,7.187976337176224
22,24,female,11,15,115,right,same,catch,clock,1,0.7763597560078779,0,j,0,change,0.4578462647732522,0,0,0,0,0.3874161989770073,0,0,6.267854405123217
22,24,female,12,45,45,right,same,valid,anti,1,1.1118326308096584,0,j,0,change,1.2204784011300944,0.31246942673131145,0,0,0,0.3874498765489989,0,0,5.4883523713178874
22,24,female,13,135,135,left,change,catch,clock,1,2.929442280170406,0,j,1,change,0.9069475867945584,0,0,0,0,0.3875018362305127,0,0,8.778120291153755
22,24,female,14,135,135,right,same,valid,anti,1,1.264623603423388,0,j,0,change,0.35494203929556534,0.3131745210472785,0,0,0,0.3874825919028808,0,0,4.900389441023435
22,24,female,15,165,135,left,same,catch,clock,1,1.4254641571205866,0,j,0,change,1.3750385688381357,0,0,0,0,0.3874745734337921,0,0,7.390834312120205
22,24,female,16,135,135,left,same,valid,clock,2,1.5522823450610304,1,f,1,same,0.80519000244567,0.3138425114832496,0,0,0,0.38751017543836497,0,0,5.372752342835156
22,24,female,17,15,325,left,change,valid,anti,1,1.313471798401224,0,f,0,same,0.49620630174831604,0.31359518577251067,0,0,0,0.38744378251067246,0,0,4.524847953782228
22,24,female,18,165,215,right,change,valid,clock,2,0.47348356310067174,1,j,1,change,0.3917766426475282,0.31424353940248084,0,0,0,0.38741459528318956,0,0,3.815669179761244
22,24,female,19,105,155,right,change,valid,clock,1,2.4174691016305587,0,j,1,change,0.795744886943794,0.3140009802958487,0,0,0,0.38747617712760984,0,0,6.11232175744226
22,24,female,20,105,105,right,same,valid,anti,2,0.8094939960901684,1,j,0,change,0.3596623518733395,0.31463433323555556,0,0,0,0.38741844414653315,0,0,4.419726781879945
22,24,female,21,15,15,right,same,valid,anti,1,0.7694449487171369,0,j,0,change,0.4553024855340482,0.3143948993780204,0,0,0,0.3875194768625079,0,0,4.003559238206435
22,24,female,22,165,115,left,change,valid,anti,1,0.9694669513974077,0,f,0,same,0.5407761621809186,0.3150176101066369,0,0,0,0.3874617438814312,0,0,4.440878541998245
22,24,female,23,45,355,right,change,valid,anti,2,0.5134456902651436,1,j,1,change,0.6120763922790502,0.31568552973749664,0,0,0,0.3874585364956147,0,0,4.0334126413417835
22,24,female,24,105,105,left,same,valid,clock,2,0.4014732173491211,1,f,1,same,0.238327834802476,0.3154602030044672,0,0,0,0.38754994704686396,0,0,3.5992009755591425
22,24,female,25,165,215,left,change,valid,clock,2,0.5534896058179584,1,j,1,change,0.5964522442409361,0.31523727345791486,0,0,0,0.3874764978663734,0,0,4.113895943361058
22,24,female,26,45,95,left,change,valid,clock,2,0.5054971418976493,1,f,0,same,0.42836491861999093,0.31501623573914117,0,0,0,0.38742967000325734,0,0,3.761948321285672
22,24,female,27,75,125,right,change,valid,clock,1,1.097538907217313,0,j,1,change,0.893042277861241,0.3147965962091144,0,0,0,0.3874726490012108,0,0,4.864527959120096
22,24,female,28,135,135,right,same,valid,clock,1,1.401408748855829,0,j,0,change,0.7280208942065656,0.3154048625228163,0,0,0,0.3875085717445472,0,0,5.020772326146471
22,24,female,29,15,15,left,same,valid,anti,1,0.681461170401235,0,f,1,same,0.9377856579740182,0.3160645893041035,0,0,0,0.3874797052540089,0,0,4.364501658539666
22,24,female,30,105,105,right,same,valid,clock,1,0.45751430013842764,0,j,0,change,0.3943217048417864,0.3167400340544017,0,0,0,0.3873963131718483,0,0,3.8110235993190145
22,24,female,31,105,55,right,change,valid,anti,2,1.009517602464257,1,f,0,same,0.43982523585509625,0.3174442136979013,0,0,0,0.3874707245686295,0,0,4.506624217958233
22,24,female,32,135,85,left,change,valid,anti,1,0.35350609179295134,0,j,1,change,0.3821900813454704,0.3171954644530182,0,0,0,0.38750087401422206,0,0,3.7896960743491945
22,24,female,33,135,185,left,change,valid,clock,1,0.35349165854677267,0,j,1,change,0.30935062585740525,0.3179230026726564,0,0,0,0.3875063265732024,0,0,3.5415084088072035
22,24,female,34,105,155,left,change,valid,clock,1,0.5295493427747715,0,f,0,same,0.23626323929602222,0.3187024232711935,0,0,0,0.38752011834003497,0,0,3.8789849387485447
22,24,female,35,45,45,right,same,valid,clock,2,0.3935243482428632,1,f,1,same,0.6046342904392077,0.31954957545696594,0,0,0,0.387493817759605,0,0,3.7053639070072677
22,24,female,36,45,355,left,change,valid,anti,1,0.8255286897619953,0,j,1,change,0.11728134115037392,0.3192388351926792,0,0,0,0.38740914272420923,0,0,3.966501079929003
22,24,female,37,105,105,left,same,valid,anti,2,1.041481787489829,1,f,1,same,0.5648290045373869,0.3201327007343696,0,0,0,0.3874428202943818,0,0,4.3472885706032685
22,24,female,38,15,65,left,change,valid,clock,1,0.8175560859872348,0,j,1,change,0.36702779714687495,0.3198045801281487,0,0,0,0.38748740298433404,0,0,4.457102150809078
22,24,female,39,75,25,left,change,valid,anti,2,0.5455503588746069,1,j,1,change,0.09128706697993039,0.32069170363980665,0,0,0,0.3874832333804079,0,0,3.378120547746221
22,24,female,40,75,75,left,same,valid,clock,2,0.7694122333632549,1,f,1,same,0.9242819139908534,0.3203822931481667,0,0,0,0.3874691208748118,0,0,4.3911749367034645
22,24,female,41,105,45,right,change,catch,anti,1,0.40142446505706175,0,j,1,change,0.5381085777735279,0,0,0,0,0.3875050436181482,0,0,5.503106355054115
22,24,female,42,165,165,left,same,valid,anti,2,1.8405652443616418,1,f,1,same,0.7128746469461475,0.3200628819956183,0,0,0,0.38741459528318956,0,0,5.778478235628427
22,24,female,43,165,165,right,same,valid,anti,2,0.6814768866024679,1,j,0,change,0.4225656407961651,0.3197377492527017,0,0,0,0.3874777808214276,0,0,3.988891853940004
22,24,female,44,75,45,right,change,catch,clock,2,0.33737966682929255,1,j,1,change,0.512204110460516,0,0,0,0,0.38755251295515336,0,0,5.175804942071409
22,24,female,45,165,165,left,same,valid,clock,1,2.4643944676408864,0,f,1,same,0.4215633321164205,0.3194245024790743,0,0,0,0.3875310234579956,0,0,6.148848130831539
22,24,female,46,165,355,right,same,catch,anti,2,0.8495359872122208,1,j,0,change,0.38543339185707737,0,0,0,0,0.3874460276838363,0,0,5.768315948223972
22,24,female,47,75,125,left,change,valid,clock,1,2.2162606862148095,0,f,0,same,0.6332473967249825,0.3203128725998301,0,0,0,0.3874123501100257,0,0,6.116026290315858
22,24,female,48,15,65,right,change,valid,clock,2,0.8814671361433284,1,j,1,change,0.32181902506818005,0.3211430849978578,0,0,0,0.387470403828047,0,0,4.543054690451754
22,24,female,49,105,15,right,same,catch,clock,2,0.9134633950452553,1,f,1,same,0.48432228858655435,0,0,0,0,0.3874764978663734,0,0,5.752840943714546
22,24,female,50,135,185,right,change,valid,clock,2,0.7994882292077818,1,j,1,change,0.3848121208466182,0.32085235050652006,0,0,0,0.38746495126906666,0,0,4.5242132117436995
22,24,female,51,105,55,left,change,valid,anti,2,0.6254826316744584,1,f,0,same,0.49171050631230173,0.32055293063177837,0,0,0,0.3875342308456311,0,0,3.934892594206758
22,24,female,52,165,115,right,change,valid,anti,1,1.3934313339977962,0,j,1,change,0.5509936166563421,0.3202440638949539,0,0,0,0.38747489417255565,0,0,4.778641170927585
22,24,female,53,135,135,left,same,valid,anti,2,0.4094830268259102,1,j,0,change,0.3777003799459635,0.32107396472404437,0,0,0,0.38748868593938823,0,0,3.731917228868042
22,24,female,54,15,15,left,same,valid,clock,1,1.769478305548546,0,f,1,same,0.9458394086595945,0.3207836495691617,0,0,0,0.3875104961771285,0,0,5.738356380554251
22,24,female,55,75,75,left,same,valid,anti,2,1.7854911889844516,1,f,1,same,0.5702777148781024,0.3215615811054687,0,0,0,0.38747361121568247,0,0,4.972298112581484
22,24,female,56,165,75,left,change,catch,clock,2,1.0494826162794197,1,f,0,same,0.539365553038806,0,0,0,0,0.38751659021181695,0,0,5.986869595952157
22,24,female,57,135,65,left,same,catch,anti,1,1.2631619968178711,0,j,0,change,0.7647034673773305,0,0,0,0,0.3874899688944424,0,0,6.595429729020907
22,24,female,58,165,165,right,same,valid,clock,2,0.8083399779716274,1,j,0,change,0.6163188040809473,0.3212873375155667,0,0,0,0.3874659134871763,0,0,4.6259740034802235
