subject,age,gender,ntrial,memory_ori,test_ori,cue,type,trial_type,which_change,pas,pas_rt,vis,test_key,test_acc,test,test_rt,contrast,fix_dur,cue_dur,jitter_dur,target_dur,mask_dur,retention_dur,trial_dur
23,23,male,1,75,75,left,same,valid,anti,3,3.8400613637422794,1,j,1,same,1.2441004913071083,0.5,0,0,0,0.38748676150680694,0,0,7.8335654412949225
23,23,male,2,15,65,left,change,valid,clock,3,3.145473317419601,1,j,0,same,1.493161528537712,0.4069419370673367,0,0,0,0.38749542145433225,0,0,7.729158875386929
23,23,male,3,45,165,left,change,catch,anti,2,2.1054409484631833,1,j,0,same,1.3771079754269522,0,0,0,0,0.38751081691589206,0,0,8.591177695056103
23,23,male,4,15,15,left,same,valid,clock,3,5.424463452137388,1,j,1,same,1.26250063345924,0.3461892688284379,0,0,0,0.38750472287847515,0,0,9.87448465297075
23,23,male,5,105,105,left,same,valid,anti,2,4.249491468669476,1,f,0,change,1.326915564234696,0.2977447647674634,0,0,0,0.38751338282509096,0,0,8.758272013425085
23,23,male,6,135,135,right,same,valid,anti,4,3.985371425125777,1,j,1,same,2.643867699102884,0.25592670972998877,0,0,0,0.387440575123037,0,0,9.717200771568969
23,23,male,7,45,355,left,change,valid,anti,2,12.225318349273039,1,j,0,same,2.4787170577219513,0.21928796852134014,0,0,0,0.387560210686388,0,0,17.652498138111696
23,23,male,8,75,125,left,change,valid,clock,1,2.401449482679709,0,j,0,same,1.8253356050190632,0.18534516214727204,0,0,0,0.38749542145433225,0,0,7.048571076675216
23,23,male,9,15,325,right,change,valid,anti,3,2.6494334790986613,1,f,1,change,1.9759048201267433,0.25336261990564335,0,0,0,0.38751402430352755,0,0,7.419989787677878
23,23,male,10,75,75,left,same,valid,clock,4,1.873472401390245,1,j,1,same,0.9207047144118405,0.23450019737555283,0,0,0,0.3874732904787379,0,0,5.832605149396841
23,23,male,11,105,165,left,same,catch,anti,1,1.5215494762014714,0,j,1,same,1.0247645617009766,0,0,0,0,0.38740112425330153,0,0,6.985398046444061
23,23,male,12,165,165,left,same,valid,clock,1,2.4237963154819226,0,j,1,same,1.9158814446846009,0.21762318977608586,0,0,0,0.38744955580841633,0,0,7.294980566437516
23,23,male,13,105,55,left,change,valid,anti,1,2.8174072631936724,0,f,1,change,1.6617363771010787,0.25497846154022785,0,0,0,0.3874720075227742,0,0,7.408196543590748
23,23,male,14,15,15,right,same,valid,clock,4,1.577478300418079,1,j,1,same,0.6971093738466152,0.28477480524945414,0,0,0,0.38746751718099404,0,0,5.309228745122709
23,23,male,15,165,15,left,change,catch,clock,2,2.097416064265417,1,j,0,same,0.9210430938201171,0,0,0,0,0.387483874857935,0,0,7.234934097803489
23,23,male,16,105,55,right,change,valid,anti,4,3.2244414494571174,1,j,0,same,0.9348759157892346,0.27390313320243337,0,0,0,0.38748355411917146,0,0,7.004022064261335
23,23,male,17,105,105,left,same,valid,clock,4,2.209434402826446,1,j,1,same,1.295499842517529,0.2641158747587213,0,0,0,0.38746174388234067,0,0,6.374382337300631
23,23,male,18,165,165,right,same,valid,anti,4,2.1534379027270916,1,j,1,same,1.2843647544004853,0.25515050295422426,0,0,0,0.3874421788177642,0,0,6.504237921459207
23,23,male,19,45,45,right,same,valid,clock,4,1.4174071990464654,1,j,1,same,0.9485717822999504,0.2473377413326046,0,0,0,0.3874684793972847,0,0,5.462037358370253
23,23,male,20,165,165,right,same,valid,clock,4,1.6414172548484203,1,j,1,same,0.9872467847544613,0.239978887672887,0,0,0,0.387400803514538,0,0,5.648760889883306
23,23,male,21,165,215,left,change,valid,clock,2,4.441420911270143,1,f,1,change,2.1037265997010763,0.23297849243563568,0,0,0,0.3874659134862668,0,0,9.312543259642553
23,23,male,22,15,15,left,same,valid,anti,2,0.80148258292229,1,j,1,same,0.7253311788235806,0.22623573467060915,0,0,0,0.38746014018852293,0,0,4.509956373111891
23,23,male,23,45,105,left,change,catch,clock,2,1.8494490670036612,1,f,1,change,1.3434211024305114,0,0,0,0,0.38748932741691533,0,0,7.593945991438886
23,23,male,24,105,155,left,change,valid,clock,1,2.768297666111721,0,f,1,change,2.7203622936931424,0.22015014689307372,0,0,0,0.3874944592380416,0,0,8.577405813454789
23,23,male,25,135,85,right,change,valid,anti,4,1.6172393243696206,1,f,1,change,1.2790789793580188,0.23594097332089536,0,0,0,0.3875573240384256,0,0,5.652223585718275
23,23,male,26,45,45,left,same,valid,clock,1,1.8813962528729462,0,f,0,change,1.6406198982485876,0.2306323546112104,0,0,0,0.3874764978663734,0,0,6.723968359761784
23,23,male,27,45,45,right,same,valid,anti,4,1.6654521358314014,1,j,1,same,0.605196866253209,0.24452317315095684,0,0,0,0.38747617712760984,0,0,5.423200382833784
23,23,male,28,75,135,right,change,catch,anti,1,5.201440630289653,0,f,1,change,3.1286973964352,0,0,0,0,0.3875175524290171,0,0,12.694866447580353
23,23,male,29,75,25,right,change,valid,anti,3,2.448157387801075,1,j,0,same,2.2528710931610476,0.23947741870298428,0,0,0,0.38745821575594164,0,0,7.7727520862454185
23,23,male,30,75,185,right,change,catch,clock,2,1.5614519459541043,1,j,0,same,1.2779769209200822,0,0,0,0,0.38751145839341916,0,0,7.2974765555991326
23,23,male,31,135,185,right,change,valid,clock,4,1.7684439229942654,1,f,1,change,1.0332269335895035,0.23484628469558938,0,0,0,0.3875255708990153,0,0,5.724593479636496
23,23,male,32,105,155,right,same,catch,anti,2,1.4733110056376972,1,j,1,same,2.142969630528569,0,0,0,0,0.3875156279964358,0,0,8.279252178297611
23,23,male,33,135,135,right,same,valid,clock,3,1.9042030250802782,1,j,1,same,0.7739917416183744,0.2302510372032493,0,0,0,0.3874546876295426,0,0,5.672756961474988
23,23,male,34,135,185,left,change,valid,clock,2,1.6012421571349478,1,j,0,same,1.136500329399496,0.22596889432825817,0,0,0,0.3875621351198788,0,0,5.75285954656465
23,23,male,35,75,75,right,same,valid,clock,1,2.3053025817553134,0,f,0,change,2.434181516337958,0.2219978689225634,0,0,0,0.38749606293094985,0,0,8.154046344187918
23,23,male,36,45,15,left,same,catch,anti,1,1.5454425906455072,0,f,0,change,1.2322466275918487,0,0,0,0,0.38747232826153777,0,0,7.125773862484493
23,23,male,37,165,115,right,change,valid,anti,3,3.2081174494087463,1,j,0,same,1.1404229646395834,0.23254084071348646,0,0,0,0.3875063265722929,0,0,7.1991345184851525
23,23,male,38,105,105,right,same,valid,anti,4,1.601468598711108,1,j,1,same,0.9858329682256226,0.22868335694360087,0,0,0,0.38750151549083967,0,0,6.1346002728841995
23,23,male,39,105,105,right,same,valid,clock,4,1.5853922089982007,1,j,1,same,0.7328784829833239,0.22510214710265247,0,0,0,0.3875197976012714,0,0,5.2106160044795615
23,23,male,40,165,215,right,change,valid,clock,4,1.2014970803147662,1,f,1,change,0.7622241566332377,0.22172848061526274,0,0,0,0.3875130620872369,0,0,4.991060048071631
23,23,male,41,75,75,right,same,valid,anti,2,1.1294379822711562,1,j,1,same,1.5222551015103818,0.21826534179653712,0,0,0,0.3874598194497594,0,0,5.644892780234841
23,23,male,42,45,355,right,change,valid,anti,3,1.5694037017110531,1,j,0,same,1.5366036714322036,0.21503597482972936,0,0,0,0.3874155574985707,0,0,6.709290391115246
23,23,male,43,75,125,right,change,valid,clock,3,4.841348167716205,1,j,0,same,3.287186614159509,0.21197282974283282,0,0,0,0.3874912518494966,0,0,11.440268176105747
23,23,male,44,45,45,left,same,valid,anti,1,2.129507261846811,0,j,1,same,1.028059831895007,0.20879906737486542,0,0,0,0.3875085717445472,0,0,6.26829670389543
23,23,male,45,45,95,right,change,valid,clock,4,1.465442962702582,1,j,0,same,1.1245233019926673,0.21707521211065411,0,0,0,0.3874367262578744,0,0,5.315474170584821
23,23,male,46,45,95,left,change,valid,clock,2,4.705473278932004,1,j,0,same,1.535415334264144,0.21426676578276105,0,0,0,0.387457253539651,0,0,9.514718381731655
23,23,male,47,15,15,right,same,valid,anti,4,1.057489539105518,1,j,1,same,0.4252165467851228,0.21138522978911511,0,0,0,0.38747104530739307,0,0,4.476634500843829
23,23,male,48,165,115,left,change,valid,anti,1,1.8333406034116706,0,f,1,change,2.4215822557043793,0.20857848431009773,0,0,0,0.3874883652006247,0,0,7.494695622108338
23,23,male,49,15,65,right,change,valid,clock,3,1.617471539244434,1,j,0,same,0.815673670104843,0.21596591760145478,0,0,0,0.38750087401331257,0,0,5.333788996222211
23,23,male,50,75,25,left,change,valid,anti,1,1.3134596103282092,0,f,1,change,1.1634244252845747,0.21348258066593268,0,0,0,0.3875082510048742,0,0,5.397294953303572
23,23,male,51,135,135,left,same,valid,anti,1,1.68950946852965,0,f,0,change,0.1510615491297358,0.22018278689854576,0,0,0,0.3874514802409976,0,0,5.310344274587806
23,23,male,52,45,155,right,change,catch,clock,1,1.3455366954030978,0,f,1,change,0.5439495516393436,0,0,0,0,0.3874527631960518,0,0,6.610799851947377
23,23,male,53,165,25,right,same,catch,clock,1,1.4483989041000314,0,f,0,change,0.18370473814593424,0,0,0,0,0.38745949871099583,0,0,6.174351995412508
23,23,male,54,135,135,left,same,valid,clock,1,1.288265900143415,0,f,0,change,1.3576894876587176,0.2268463557748437,0,0,0,0.38749157258826017,0,0,5.834479226070471
23,23,male,55,135,85,left,change,valid,anti,1,0.881464890971074,0,f,1,change,0.8306297192702914,0.23356679382463186,0,0,0,0.3874857992905163,0,0,5.078429932369545
23,23,male,56,105,155,right,change,valid,clock,3,3.1374962233003316,1,f,1,change,1.051251490633149,0.2397542076047584,0,0,0,0.38747681860422745,0,0,7.094446664669704
23,23,male,57,165,165,left,same,valid,anti,1,4.513443765832562,0,f,0,change,1.6201400858681154,0.2374625250576612,0,0,0,0.38743961290674633,0,0,9.523628504953194
23,23,male,58,15,325,left,change,valid,anti,1,0.857453423917832,0,j,0,same,1.185809105260887,0.2437291684912435,0,0,0,0.3875088924824013,0,0,5.070401199306616
23,23,male,1,105,155,right,change,valid,clock,3,2.66429266515388,1,j,0,same,1.1759220117246514,0.24952852475134796,0,0,0,0.38739246430577623,0,0,7.193494006353831
23,23,male,2,165,25,right,same,catch,clock,1,0.7694690041253125,0,f,0,change,0.7347948971746519,0,0,0,0,0.3874832333804079,0,0,6.01778400296098
23,23,male,3,135,85,right,change,valid,anti,3,1.8082222668408576,1,j,0,same,0.9131641457661317,0.2473769762502373,0,0,0,0.3875063265722929,0,0,6.101054204212232
23,23,male,4,165,165,right,same,valid,anti,4,1.6414458005992856,1,j,1,same,0.500739302880902,0.24534229895329246,0,0,0,0.38751787316778064,0,0,4.767899629289786
23,23,male,5,15,325,left,change,valid,anti,1,0.8175220876755702,0,f,1,change,0.6104024566029693,0.24338687652283936,0,0,0,0.3874514802419071,0,0,4.15283908343099
23,23,male,6,75,25,left,change,valid,anti,2,1.9054199079992031,1,j,0,same,1.6960640861734646,0.24869933364023894,0,0,0,0.3874857992905163,0,0,6.3780583244224545
23,23,male,7,135,135,left,same,valid,clock,1,1.0011623573273027,0,f,0,change,1.4862704559172926,0.24675110217770369,0,0,0,0.3874309529601305,0,0,5.659615010830748
23,23,male,8,45,355,left,change,valid,anti,1,0.7534237260733789,0,f,1,change,1.1460785514918825,0.2522379339633734,0,0,0,0.3875384004504667,0,0,5.267892893775752
23,23,male,9,105,55,right,change,valid,anti,4,1.2814655965967177,1,f,1,change,0.7115628253495743,0.2573200898773219,0,0,0,0.3875268538540695,0,0,5.281717697274871
23,23,male,10,75,125,left,change,valid,clock,2,2.24950814708518,1,j,0,same,1.0482917132012517,0.2555025812298991,0,0,0,0.3874639890536855,0,0,6.231668977055051
23,23,male,11,75,185,right,change,catch,clock,1,1.4014286346600784,0,f,1,change,1.522965858639509,0,0,0,0,0.38745757427841454,0,0,7.54685223757042
23,23,male,12,135,185,right,change,valid,clock,4,1.5278497479957878,1,f,1,change,0.7445039806889326,0.2537522599587938,0,0,0,0.3874367262578744,0,0,5.214139640682333
23,23,male,13,165,165,right,same,valid,clock,4,5.025398341524124,1,f,0,change,0.8631962517183638,0.2519235921448925,0,0,0,0.38754000414337497,0,0,8.89015178000409
23,23,male,14,105,105,left,same,valid,anti,3,1.4574860751263259,1,j,1,same,0.8709475457389999,0.2501088082257021,0,0,0,0.38747810156019113,0,0,5.397165695576405
23,23,male,15,15,65,right,change,valid,clock,3,2.2894378796345336,1,j,0,same,0.9825842051550353,0.24835007795267533,0,0,0,0.38750215696836676,0,0,6.102549488388831
23,23,male,16,165,15,left,change,catch,clock,1,1.6176152302168703,0,f,1,change,0.019962460733950138,0,0,0,0,0.38743383960900246,0,0,6.54850532522596
23,23,male,17,45,155,right,change,catch,clock,3,3.630768727456598,1,j,0,same,1.9295372188480542,0,0,0,0,0.3874999117970219,0,0,10.370709236827679
23,23,male,18,15,15,right,same,valid,anti,4,4.7277421722092186,1,j,1,same,0.6953796296238579,0.24668711599837523,0,0,0,0.3875602106872975,0,0,8.66462687495914
23,23,male,19,165,165,left,same,valid,clock,3,1.5135162527958528,1,j,1,same,0.8238903560904873,0.24509416673975243,0,0,0,0.3874614231435771,0,0,5.101083070701861
23,23,male,20,75,125,right,change,valid,clock,3,1.6653799696068745,1,f,1,change,0.8278126705927207,0.24354890889692332,0,0,0,0.38744249955561827,0,0,5.118322459219598
23,23,male,21,75,135,right,change,catch,anti,1,0.6734362862043781,0,f,1,change,1.3536568390163666,0,0,0,0,0.3874777808214276,0,0,6.376921626197145
23,23,male,22,135,85,left,change,valid,anti,2,1.4238880467719355,1,j,0,same,1.178855167839174,0.24192496803426788,0,0,0,0.3875310234579956,0,0,5.930892981657962
23,23,male,23,75,75,left,same,valid,clock,2,1.345365420896087,1,j,1,same,1.8922522982538794,0.24030706941057667,0,0,0,0.38745693279997795,0,0,6.608799083456688
23,23,male,24,45,95,left,change,valid,clock,1,1.0334450359587208,0,f,1,change,0.6978419412134826,0.23871832510477448,0,0,0,0.3875044021397116,0,0,4.888717436193474
23,23,male,25,105,55,left,change,valid,anti,1,0.7214848794119462,0,f,1,change,0.751765827336385,0.24301134474037184,0,0,0,0.38748804446186114,0,0,4.637348041986115
23,23,male,26,45,105,left,change,catch,clock,1,1.8815505282245795,0,f,1,change,0.10123157275575068,0,0,0,0,0.3874777808214276,0,0,6.595354996885362
23,23,male,27,15,325,right,change,valid,anti,4,2.2480891987361247,1,f,1,change,0.8475830087991199,0.24697700502715708,0,0,0,0.38748162968659017,0,0,6.514945144047488
23,23,male,28,15,15,left,same,valid,clock,2,0.841475501010791,1,j,1,same,0.8926894652067858,0.2455529332872074,0,0,0,0.3874485935930352,0,0,5.000419205581238
23,23,male,29,45,355,right,change,valid,anti,2,1.2814367301061793,1,f,1,change,0.8458978472654053,0.2441722102239552,0,0,0,0.38740657681228186,0,0,5.13468366496727
23,23,male,30,15,15,right,same,valid,clock,4,2.3214883433902287,1,j,1,same,0.4297906024821714,0.2427245647458629,0,0,0,0.3875098546986919,0,0,5.7295492144785385
23,23,male,31,75,25,right,change,valid,anti,2,0.8735080033939084,1,j,0,same,1.0612931802597814,0.24128732010102033,0,0,0,0.387450518024707,0,0,4.938973995141168
23,23,male,32,45,45,left,same,valid,anti,3,0.9054016258887714,1,j,1,same,0.7440575123118833,0.23984465355142198,0,0,0,0.3875409663605751,0,0,4.824179662467941
23,23,male,33,105,155,left,change,valid,clock,1,0.49750369009962014,0,f,1,change,0.6721732169016832,0.23844759199552046,0,0,0,0.3874611024048136,0,0,3.9628010373971847
23,23,male,34,165,215,left,change,valid,clock,1,0.8334753136987274,0,f,1,change,0.205926482823088,0.24229106053107852,0,0,0,0.3875137035638545,0,0,4.199103406823269
23,23,male,35,75,75,left,same,valid,anti,2,0.8174951456185227,1,j,1,same,1.1489748226476877,0.24583516282987344,0,0,0,0.3874819504253537,0,0,4.609365187397998
23,23,male,36,45,45,left,same,valid,clock,1,1.137326552488048,0,f,0,change,3.5491375013552897,0.24458759891448634,0,0,0,0.38738925691905024,0,0,8.045038459787065
23,23,male,37,135,135,left,same,valid,anti,2,0.9774494980756572,1,j,1,same,0.8518273450335982,0.24798543128760459,0,0,0,0.3874348018252931,0,0,5.082909690865563
23,23,male,38,75,75,right,same,valid,clock,2,0.9774341026140974,1,j,1,same,0.8019069203246545,0.24673003857272713,0,0,0,0.3875274953315966,0,0,4.524349204984901
23,23,male,39,105,105,right,same,valid,clock,3,1.0334687706272234,1,j,1,same,0.6613919036553852,0.2455197685219051,0,0,0,0.38751659021272644,0,0,4.742956416090237
23,23,male,40,45,95,right,change,valid,clock,1,0.5533564992256288,0,f,1,change,2.8186741813624394,0.2443418036656438,0,0,0,0.3874992703194948,0,0,6.463287598122406
23,23,male,41,45,45,right,same,valid,anti,3,1.00942458821919,1,j,1,same,0.5346340146043076,0.2475607641532595,0,0,0,0.3874534046735789,0,0,4.626807282822483
23,23,male,42,165,115,left,change,valid,anti,2,1.5453049937095784,1,j,0,same,3.418119880608174,0.24637969602655724,0,0,0,0.38751691095149,0,0,7.99228911906539
23,23,male,43,135,135,right,same,valid,clock,4,4.86549659022603,1,j,1,same,0.6209518757123078,0.24523680660612207,0,0,0,0.38750857174363773,0,0,8.788785176223428
23,23,male,44,45,45,right,same,valid,clock,4,0.68941709576211,1,j,1,same,0.6480296054724022,0.2441207874743842,0,0,0,0.3874806674702995,0,0,4.220553133265639
23,23,male,45,105,165,left,same,catch,anti,2,1.0014789265005675,1,j,1,same,0.830852632720962,0,0,0,0,0.387490289633206,0,0,6.4703714347479035
23,23,male,46,15,15,left,same,valid,anti,2,1.0162678707620216,1,f,0,change,1.8016358960576326,0.2429446177105804,0,0,0,0.3874989495798218,0,0,5.866897256464654
23,23,male,47,105,105,right,same,valid,anti,3,1.5135027817668743,1,j,1,same,0.5156443545802176,0.24177363301816407,0,0,0,0.3874325566530388,0,0,5.4010379748297055
23,23,male,48,45,15,left,same,catch,anti,2,0.6733589881596345,1,j,1,same,1.232813052271922,0,0,0,0,0.38751145839341916,0,0,6.251849860895163
23,23,male,49,165,115,right,change,valid,anti,2,2.688097576434302,1,f,1,change,1.4297402464944753,0.2405966029674187,0,0,0,0.38748419559669856,0,0,7.625100311052847
23,23,male,50,75,75,right,same,valid,anti,2,2.1772200415553016,1,j,1,same,0.8285532564286768,0.23941434023382302,0,0,0,0.3875088924824013,0,0,6.002854254375961
23,23,male,51,135,135,right,same,valid,anti,4,0.9614904987547561,1,j,1,same,0.7077922202879563,0.23828273017024387,0,0,0,0.3874684793972847,0,0,4.8837232126988965
23,23,male,52,105,155,right,same,catch,anti,1,0.5213855786869317,0,f,0,change,1.3257127938204576,0,0,0,0,0.38744506546572666,0,0,6.033554728619492
23,23,male,53,15,65,left,change,valid,clock,3,1.4163644772825137,1,f,1,change,1.4703191543276262,0.23720073976729222,0,0,0,0.3874790637764818,0,0,6.344892651939517
23,23,male,54,105,105,left,same,valid,clock,1,0.5134039942240634,0,f,0,change,1.2662327498665036,0.23615776158516677,0,0,0,0.3874918933270237,0,0,4.993700048944447
23,23,male,55,135,185,left,change,valid,clock,3,2.8974251732470293,1,j,0,same,2.078304844246304,0.23920016603402994,0,0,0,0.3875181939065442,0,0,8.056982771837284
23,23,male,56,45,165,left,change,catch,anti,2,0.9694396886006871,1,j,0,same,1.0354974433903408,0,0,0,0,0.38741042567835393,0,0,6.189855224931307
23,23,male,57,165,165,left,same,valid,anti,1,0.44837837681734527,0,f,0,change,1.33997540575092,0.23812475382242682,0,0,0,0.38748098820906307,0,0,5.443257782245382
23,23,male,58,165,215,right,change,valid,clock,3,1.2574210934499206,1,f,1,change,0.9603473857550853,0.2411693197815159,0,0,0,0.3874392921679828,0,0,5.101626722928813
23,23,male,1,165,15,left,change,catch,clock,2,1.9759279133177188,1,j,0,same,1.0584078142228464,0,0,0,0,0.38749285554331436,0,0,7.437511105580597
23,23,male,2,165,25,right,same,catch,clock,1,1.0084665414933625,0,f,0,change,0.7216211933919112,0,0,0,0,0.38748804446186114,0,0,6.42370907453369
23,23,male,3,105,105,left,same,valid,clock,1,0.7518954058023155,0,f,0,change,3.0765876088353252,0.2400799441045981,0,0,0,0.387450518024707,0,0,6.794227151051018
23,23,male,4,15,325,left,change,valid,anti,2,1.9214417721204882,1,f,1,change,0.9299323690220263,0.24296952376275505,0,0,0,0.38747874303771823,0,0,6.206406308033365
23,23,male,5,165,215,left,change,valid,clock,2,1.9694531596296656,1,j,0,same,1.8677796088395553,0.24193884744359745,0,0,0,0.38741972710249684,0,0,6.540521495591747
23,23,male,6,45,45,left,same,valid,anti,2,0.8654115944509613,1,j,1,same,1.420614586814736,0.2409017031800777,0,0,0,0.38743897142921924,0,0,5.507017764437478
23,23,male,7,15,325,right,change,valid,anti,4,1.4734466781401352,1,f,1,change,0.6973213821793252,0.23985038939629977,0,0,0,0.38751915612283483,0,0,5.271186560275055
23,23,male,8,165,165,right,same,valid,clock,4,1.937462674024573,1,j,1,same,0.8655386070058739,0.23882591932685138,0,0,0,0.3874857992905163,0,0,5.749007153116509
23,23,male,9,45,155,right,change,catch,clock,1,0.8414238620671313,0,f,1,change,0.4302396367702386,0,0,0,0,0.3874627060986313,0,0,5.456351301333598
23,23,male,10,75,25,right,change,valid,anti,1,0.5284761508273732,0,f,1,change,0.40472101820432727,0.23784811582949328,0,0,0,0.38751145839341916,0,0,4.169381185848579
23,23,male,11,105,105,right,same,valid,clock,4,0.9774664972310347,1,j,1,same,0.78387242037752,0.24065321650899846,0,0,0,0.3874559705845968,0,0,4.6912016863161625
23,23,male,12,15,15,right,same,valid,anti,4,0.9534094852724593,1,j,1,same,0.5292523386660832,0.23963955189095326,0,0,0,0.38745019728594343,0,0,4.306009810758042
23,23,male,13,15,15,right,same,valid,clock,4,1.0574911427984262,1,j,1,same,0.48058407814187376,0.2386614947684989,0,0,0,0.3875050436172387,0,0,4.2149337898945305
23,23,male,14,135,185,left,change,valid,clock,3,1.44153477353575,1,f,1,change,1.0251138462290328,0.23772634060334852,0,0,0,0.38747072456772,0,0,5.705898257810986
23,23,male,15,15,15,left,same,valid,anti,4,2.465436547927311,1,j,1,same,0.9931727543962552,0.2368260930981429,0,0,0,0.38753583453944884,0,0,6.7627985997824
23,23,male,16,135,85,right,change,valid,anti,3,1.3534166056733739,1,f,1,change,0.9823471791987686,0.23595348269974964,0,0,0,0.3874665549637939,0,0,5.58264764728483
23,23,male,17,75,25,left,change,valid,anti,3,1.625410144711168,1,f,1,change,1.7761143908437589,0.2351018318203752,0,0,0,0.3874710453064836,0,0,6.340313785160106
23,23,male,18,45,355,right,change,valid,anti,4,0.9694717624788609,1,f,1,change,0.7199604080060453,0.23426493839092666,0,0,0,0.3874466691595444,0,0,4.765770886028804
23,23,male,19,45,95,right,change,valid,clock,4,1.017467754527388,1,f,1,change,0.7437082277838272,0.2333792890990814,0,0,0,0.38749734588691354,0,0,4.774554317432376
23,23,male,20,45,355,left,change,valid,anti,1,0.8414844816952609,0,f,1,change,0.7095424917943092,0.23249603899915294,0,0,0,0.3875024777071303,0,0,4.671792179234217
23,23,male,21,75,125,right,change,valid,clock,2,0.9533770906555219,1,j,0,same,1.691293738344939,0.2348037839072067,0,0,0,0.3874466691604539,0,0,5.461747410515272
23,23,male,22,75,185,right,change,catch,clock,1,0.7054030371400586,0,f,1,change,0.8111310468075317,0,0,0,0,0.38746687570346694,0,0,6.314386545393063
23,23,male,23,75,75,left,same,valid,clock,1,0.7120711963107169,0,f,0,change,0.8430933074005225,0.23394369761748246,0,0,0,0.38740850124577264,0,0,4.6972437633949085
23,23,male,24,165,115,left,change,valid,anti,1,1.2975525706897315,0,f,1,change,0.07339593726646854,0.23616489377284255,0,0,0,0.3875018362296032,0,0,4.224545689559818
23,23,male,25,45,105,left,change,catch,clock,1,1.3694445638302568,0,f,1,change,0.7386062360592405,0,0,0,0,0.3874832333804079,0,0,6.891394963503444
23,23,male,26,135,135,right,same,valid,clock,4,1.2474140436115704,1,j,1,same,0.4207082425382396,0.2385643768972745,0,0,0,0.38753391010686755,0,0,4.731099024248579
23,23,male,27,135,85,left,change,valid,anti,1,0.8894060623479163,0,f,1,change,0.4588883450587673,0.2377206717322013,0,0,0,0.38749862884196773,0,0,4.435115186916846
23,23,male,28,165,165,right,same,valid,anti,4,1.041491409653645,1,j,1,same,0.4532045331934569,0.2401609287516709,0,0,0,0.3874639890536855,0,0,4.299394252745515
23,23,male,29,165,215,right,change,valid,clock,4,1.0894463471377094,1,f,1,change,0.7287881013608057,0.23927567607808647,0,0,0,0.38742389670642297,0,0,4.967389526338593
23,23,male,30,45,45,left,same,valid,clock,2,2.585288610373027,1,j,1,same,1.2031783929833182,0.23843000476097093,0,0,0,0.3874527631969613,0,0,6.710167290931167
23,23,male,31,105,155,right,same,catch,anti,1,0.737402824169294,0,f,0,change,0.9764561700831109,0,0,0,0,0.38745436688986956,0,0,6.283147550741887
23,23,male,32,135,135,right,same,valid,anti,4,4.928217699520246,1,j,1,same,0.39028328290260106,0.2376185678868057,0,0,0,0.3874983081022947,0,0,8.544916258312696
23,23,male,33,15,15,left,same,valid,clock,3,1.3934178629688176,1,j,1,same,1.1345252200108007,0.23683535091276747,0,0,0,0.3874392921679828,0,0,5.674245189399699
23,23,male,34,105,105,right,same,valid,anti,3,1.4974087514219718,1,f,0,change,0.9405969333520261,0.23607484006589785,0,0,0,0.3874142745435165,0,0,5.898076593703081
23,23,male,35,135,135,left,same,valid,anti,2,0.6494604211557089,1,j,1,same,1.2042499812368987,0.2353319349006916,0,0,0,0.3874983081022947,0,0,4.736113775024933
23,23,male,36,165,165,left,same,valid,anti,1,1.4334274594730232,0,f,0,change,1.0207915704722836,0.23460187177990915,0,0,0,0.3874912518494966,0,0,5.648216275440063
23,23,male,37,105,165,left,same,catch,anti,3,2.361556635090892,1,j,1,same,1.0227682835529777,0,0,0,0,0.38749477997680515,0,0,8.248266567280552
23,23,male,38,105,105,left,same,valid,anti,3,1.1198065175394731,1,j,1,same,1.1852763581518957,0.23660901914556254,0,0,0,0.38736744668221945,0,0,5.969091687027685
23,23,male,39,45,45,right,same,valid,anti,2,4.097458081045261,1,f,0,change,0.6739337520475601,0.23587738595266144,0,0,0,0.38751530725858174,0,0,8.10433921076401
23,23,male,40,75,75,left,same,valid,anti,4,0.8414758217486451,1,j,1,same,0.4912435106534758,0.23516128444862738,0,0,0,0.38747232826244726,0,0,4.535572817003413
23,23,male,41,105,155,right,change,valid,clock,3,1.8254452976807443,1,f,1,change,0.7575946131273668,0.23445630792197986,0,0,0,0.38750536435691174,0,0,5.354688655662358
23,23,male,42,75,75,right,same,valid,clock,4,1.025447093818002,1,j,1,same,0.688385920593646,0.2337097573164768,0,0,0,0.3874566120621239,0,0,4.537561076681413
23,23,male,43,105,55,right,change,valid,anti,4,0.9534428421047778,1,f,1,change,0.6449550035567881,0.2329655233038871,0,0,0,0.3874460276820173,0,0,4.765833430089515
23,23,male,44,105,55,left,change,valid,anti,2,0.769479267765746,1,f,1,change,1.111753087591751,0.23221889791549588,0,0,0,0.38746815865761164,0,0,4.862454703666117
23,23,male,45,135,135,left,same,valid,clock,2,0.9613872208692555,1,f,0,change,1.4870161735734655,0.23146526013272056,0,0,0,0.3874540461520155,0,0,5.521689639046599
23,23,male,46,75,75,right,same,valid,anti,1,1.4334364401584025,0,f,0,change,0.49463756838940753,0.23070001873872537,0,0,0,0.38745083876438,0,0,5.086153322115933
23,23,male,47,135,185,right,change,valid,clock,3,1.2655239171699577,1,f,1,change,1.0433334124491012,0.23273235771682804,0,0,0,0.3874784222989547,0,0,5.455293504847759
23,23,male,48,15,65,right,change,valid,clock,2,1.8014206803381967,1,j,0,same,1.8714870283611162,0.23200528609781412,0,0,0,0.38745885723346873,0,0,7.073692620634574
23,23,male,49,45,45,right,same,valid,clock,4,1.1614955022796494,1,j,1,same,0.6135646202037606,0.23126984732416495,0,0,0,0.3875290990254143,0,0,4.885662720083019
23,23,male,50,105,155,left,change,valid,clock,3,0.8734194794924406,1,j,0,same,0.6968999314258326,0.23052169393884375,0,0,0,0.3875201183391255,0,0,4.545774234540659
23,23,male,51,45,15,left,same,catch,anti,1,0.7214884075383452,0,f,0,change,0.41694533520694677,0,0,0,0,0.38745308393572486,0,0,5.659135185620471
23,23,male,52,165,165,left,same,valid,clock,4,1.408194298419403,1,j,1,same,0.6348151678648719,0.22975834303141013,0,0,0,0.38748804446186114,0,0,5.252622520609293
23,23,male,53,75,135,right,change,catch,anti,1,0.7614585531728153,0,f,1,change,0.445040448367763,0,0,0,0,0.3874752149104097,0,0,5.6587964854725215
23,23,male,54,45,165,left,change,catch,anti,1,1.1044299798386419,0,f,1,change,0.9790974539109811,0,0,0,0,0.3874187648862062,0,0,6.938367157375978
23,23,male,55,75,125,left,change,valid,clock,2,1.0160350144105905,1,f,1,change,2.352713225534899,0.22901558939173072,0,0,0,0.38736616372716526,0,0,6.409610360119586
23,23,male,56,45,95,left,change,valid,clock,2,0.7374252758836519,1,j,0,same,1.8289634813245357,0.2283041745518834,0,0,0,0.3874995910582584,0,0,5.884474382914959
23,23,male,57,165,115,right,change,valid,anti,3,3.201386104698031,1,f,1,change,2.446859037231661,0.22761943059758638,0,0,0,0.3874764978663734,0,0,8.521704393030632
23,23,male,58,15,65,left,change,valid,clock,2,0.9854490439092842,1,f,1,change,0.8752499356914996,0.226957071800299,0,0,0,0.3874797052540089,0,0,5.05938189788867
23,23,male,1,15,15,left,same,valid,clock,3,1.0395945605268935,1,j,1,same,0.5314542103706117,0.22631313561791916,0,0,0,0.3874845163354621,0,0,4.58499000257234
23,23,male,2,135,185,right,change,valid,clock,4,1.1934975344811392,1,f,1,change,0.7117280058191682,0.225683930709277,0,0,0,0.3874896481556789,0,0,5.229313792216999
23,23,male,3,45,45,left,same,valid,anti,3,0.8974322294998274,1,j,1,same,0.5515391933158753,0.22506599080462047,0,0,0,0.38745115950314357,0,0,4.618193522231195
23,23,male,4,135,135,right,same,valid,clock,4,7.601396432486581,1,j,1,same,1.687549433863751,0.22445603344738912,0,0,0,0.38746815865761164,0,0,12.039242389349965
23,23,male,5,75,75,right,same,valid,anti,3,0.8334733892652366,1,j,1,same,0.6311789523515472,0.22380881898329996,0,0,0,0.3874498765480894,0,0,4.874504859512854
23,23,male,6,165,115,left,change,valid,anti,2,1.417463649070669,1,j,0,same,1.5903322276399194,0.22316287765675524,0,0,0,0.38752781607036013,0,0,5.885742904777544
23,23,male,7,105,155,right,change,valid,clock,3,1.353440340342786,1,f,1,change,1.3163488252303068,0.2225146215056935,0,0,0,0.3874771393439005,0,0,6.051533420019041
23,23,male,8,105,55,right,change,valid,anti,4,1.5854829780728323,1,f,1,change,0.5654182016687628,0.22186051394462902,0,0,0,0.38751659021363594,0,0,5.357243019280759
23,23,male,9,105,105,left,same,valid,clock,4,1.3374665870378522,1,j,1,same,1.0919654294921202,0.22119703190177636,0,0,0,0.38738989839657734,0,0,5.533428678279961
23,23,male,10,105,155,right,same,catch,anti,1,0.9294689014895994,0,f,0,change,0.594076852859871,0,0,0,0,0.38758490757300024,0,0,6.501603373145372
23,23,male,11,45,45,right,same,valid,clock,4,1.5838664546372456,1,j,1,same,0.42575442571433086,0.22052062933084465,0,0,0,0.3874995910582584,0,0,5.279082507484418
23,23,male,12,75,125,right,change,valid,clock,4,1.1294379822702467,1,f,1,change,0.7135267088806359,0.21982813840385812,0,0,0,0.3874890066790613,0,0,4.948062769861281
23,23,male,13,45,355,left,change,valid,anti,1,0.6974721294045594,0,f,1,change,0.28039881942459033,0.21914956180688588,0,0,0,0.38748483707422565,0,0,3.930600147155019
23,23,male,14,45,15,left,same,catch,anti,3,0.9774501395531843,1,j,1,same,0.8898169287203928,0,0,0,0,0.3875181939074537,0,0,6.283089176285102
23,23,male,15,75,25,right,change,valid,anti,1,0.7437778280982457,0,f,1,change,0.46867344366273755,0.2210317933114409,0,0,0,0.3874627060986313,0,0,4.542144433802605
23,23,male,16,75,185,right,change,catch,clock,4,0.8494849897460881,1,j,0,same,0.7366946329502753,0,0,0,0,0.38750472287847515,0,0,5.737182155889968
23,23,male,17,165,215,left,change,valid,clock,3,1.0319815049188037,1,j,0,same,2.0457562731699,0.22275932303000284,0,0,0,0.387417481931152,0,0,6.481847147445478
23,23,male,18,15,325,right,change,valid,anti,4,2.489481051074108,1,f,1,change,1.493125605795285,0.2221395988144121,0,0,0,0.38744698989921744,0,0,7.5353832603868796
23,23,male,19,45,355,right,change,valid,anti,3,2.7694510427536443,1,f,1,change,0.9055459583387346,0.22151201823477784,0,0,0,0.38746078166605,0,0,6.375373420120923
23,23,male,20,75,75,right,same,valid,clock,4,1.1774516149516785,1,j,1,same,0.7010977605377775,0.22087336730602353,0,0,0,0.38750728878858354,0,0,4.697082752529241
23,23,male,21,75,25,left,change,valid,anti,4,1.4414414385519194,1,f,1,change,0.9417390841372253,0.22022038771380914,0,0,0,0.38745629132336035,0,0,5.512387252300869
23,23,male,22,135,135,left,same,valid,clock,4,1.5371251926844707,1,j,1,same,0.7909790294570485,0.21955786681992878,0,0,0,0.38739118135163153,0,0,5.292506708251494
23,23,male,23,135,185,left,change,valid,clock,1,0.8974768121906891,0,f,1,change,0.5297661621871157,0.21892020389700056,0,0,0,0.38744891433088924,0,0,4.10707286735942
23,23,male,24,105,105,right,same,valid,clock,4,2.5775029973046912,1,j,1,same,0.5408454417574831,0.22072119642315663,0,0,0,0.38746815865761164,0,0,6.01092275904648
23,23,male,25,15,15,left,same,valid,anti,4,1.401449803419382,1,j,1,same,0.46411478342724877,0.22007870353014408,0,0,0,0.38739053987410443,0,0,4.819754108823872
23,23,male,26,105,165,left,same,catch,anti,2,1.9055000926937282,1,j,1,same,1.1237166439696011,0,0,0,0,0.3873988790819567,0,0,7.562330128725989
23,23,male,27,75,75,left,same,valid,clock,1,1.65585531088891,0,f,0,change,1.82391505297619,0.21943301627506967,0,0,0,0.3874652720087397,0,0,6.550528224691334
23,23,male,28,45,95,left,change,valid,clock,1,0.6573547646703446,0,f,1,change,1.8160675373228514,0.22119203166220425,0,0,0,0.3873876532252325,0,0,5.565463746575915
23,23,male,29,75,125,left,change,valid,clock,3,1.2814582196042466,1,j,0,same,0.8884669392082287,0.22279731429877841,0,0,0,0.3874511595022341,0,0,5.1224817996780985
23,23,male,30,45,45,right,same,valid,anti,4,1.3134820620425671,1,j,1,same,0.572825342982469,0.22222031800386327,0,0,0,0.3874665549637939,0,0,4.780400743857172
23,23,male,31,105,155,left,change,valid,clock,2,0.6494626663270537,1,j,0,same,0.8415521575770981,0.22163592460099119,0,0,0,0.38744891433088924,0,0,4.709766367460361
23,23,male,32,165,25,right,same,catch,clock,4,9.073429935576314,1,j,1,same,0.8822859822403188,0,0,0,0,0.38752332572767045,0,0,14.503610556411331
23,23,male,33,165,15,left,change,catch,clock,2,0.6874949082721287,1,j,0,same,0.8779300289115781,0,0,0,0,0.3874309529601305,0,0,6.173725271842159
23,23,male,34,15,15,right,same,valid,anti,4,0.8395966132547983,1,j,1,same,0.38342139750966453,0.22104132378290586,0,0,0,0.38746559274750325,0,0,4.284731679561446
23,23,male,35,165,115,right,change,valid,anti,4,0.969472403956388,1,f,1,change,0.8643624579108291,0.2204336644080609,0,0,0,0.38747072456772,0,0,4.576813729671812
23,23,male,36,45,165,left,change,catch,anti,1,0.6894520562882462,0,f,1,change,0.7767372655480358,0,0,0,0,0.38750215696836676,0,0,5.799622939493929
23,23,male,37,45,45,left,same,valid,clock,2,0.6322627286790521,1,j,1,same,0.7416532544402799,0.21981076636145347,0,0,0,0.38748868593938823,0,0,4.47245078423839
23,23,male,38,105,105,left,same,valid,anti,2,1.8734518741084685,1,f,0,change,1.1683047865126355,0.21920140961341084,0,0,0,0.38749734588691354,0,0,6.233534714519919
23,23,male,39,135,135,right,same,valid,anti,4,1.0894816284035187,1,j,1,same,0.604377699417455,0.21861710736116363,0,0,0,0.3875377589729396,0,0,5.0151199466808976
23,23,male,40,75,75,left,same,valid,anti,2,0.7214653143464602,1,j,1,same,0.7486209836288253,0.2180546888161078,0,0,0,0.38752460868272465,0,0,4.486645399547342
23,23,male,41,165,165,right,same,valid,clock,4,0.7534917226939797,1,j,1,same,1.176254617837003,0.21751122422538438,0,0,0,0.3874136330659894,0,0,5.080451228141101
23,23,male,42,15,325,left,change,valid,anti,2,1.089337616692319,1,f,1,change,1.6777107718835396,0.2169839923981694,0,0,0,0.38743640551820135,0,0,5.808532741976705
23,23,male,43,15,65,right,change,valid,clock,3,1.5614205135534576,1,f,1,change,1.858099712553667,0.21647045173926588,0,0,0,0.38740112425330153,0,0,6.916915827239791
23,23,male,44,45,95,right,change,valid,clock,4,4.289456482483729,1,f,1,change,0.8806723454536041,0.2159682142780997,0,0,0,0.3874392921679828,0,0,8.39702296682026
23,23,male,45,135,85,left,change,valid,anti,1,1.3693781709034738,0,f,1,change,2.5898164796863057,0.21547502224993947,0,0,0,0.3875044021397116,0,0,7.18591077945257
23,23,male,46,105,105,right,same,valid,anti,1,1.9609288851570454,0,f,0,change,12.736397308103733,0.21693472255396817,0,0,0,0.38750343992342096,0,0,17.785112717228003
23,23,male,47,165,165,right,same,valid,anti,4,2.113477379255528,1,j,1,same,0.6228419893250248,0.2184380075503899,0,0,0,0.3874546876295426,0,0,5.80832843137523
23,23,male,48,165,215,right,change,valid,clock,4,1.0974391574582114,1,f,1,change,0.6534269976091309,0.21790476320761448,0,0,0,0.3874408958618005,0,0,4.955782952220943
23,23,male,49,165,165,left,same,valid,anti,4,0.7534468192661734,1,j,1,same,0.8915643135769642,0.21738878448165905,0,0,0,0.38743383960900246,0,0,4.873602300594939
23,23,male,50,15,65,left,change,valid,clock,4,1.6654332122434425,1,f,1,change,0.8965886865171342,0.21688761303495135,0,0,0,0.38754641891955544,0,0,5.5570421085112685
23,23,male,51,45,105,left,change,catch,clock,1,0.6494825521313032,0,f,1,change,0.3227632800289939,0,0,0,0,0.3874906103719695,0,0,5.4096773945238965
23,23,male,52,45,155,right,change,catch,clock,1,0.744512640636458,0,f,1,change,0.32173563298783847,0,0,0,0,0.3874540461520155,0,0,5.846838574098001
23,23,male,53,75,135,right,change,catch,anti,1,0.9117660454376164,0,f,1,change,0.33605309124868654,0,0,0,0,0.38745308393572486,0,0,6.22108940850012
23,23,male,54,135,135,left,same,valid,anti,2,1.0555551635416123,1,j,1,same,1.2432245537083872,0.21639894654116804,0,0,0,0.38748708224648,0,0,5.637356060455204
23,23,male,55,135,85,right,change,valid,anti,3,1.7294619735312153,1,j,0,same,1.2559966925418848,0.21592061641585175,0,0,0,0.3874957421930958,0,0,6.421165295294486
23,23,male,56,165,165,left,same,valid,clock,2,1.0174542834984095,1,j,1,same,1.689075508964379,0.21545056766062864,0,0,0,0.38752140129508916,0,0,5.983427106660201
23,23,male,57,105,55,left,change,valid,anti,2,0.4174886666951352,1,j,0,same,0.7960999447686845,0.21498684050722677,0,0,0,0.387556682559989,0,0,4.824160097402455
23,23,male,58,15,15,right,same,valid,clock,4,1.0334909016037273,1,j,1,same,0.40463730538340315,0.21449582614112161,0,0,0,0.3874700830911024,0,0,4.56247959299526
23,23,male,1,15,15,right,same,valid,anti,4,1.7524114744937833,1,j,1,same,0.5857123062978644,0.21400732390207378,0,0,0,0.3874142745435165,0,0,5.233421172993076
23,23,male,2,105,155,right,change,valid,clock,4,0.9694813846426769,1,f,1,change,0.9699021939177328,0.21351917829191547,0,0,0,0.38755507886617124,0,0,4.559264186756991
23,23,male,3,15,15,left,same,valid,clock,4,0.9054972060448563,1,j,1,same,0.6477409405724757,0.21302927131502397,0,0,0,0.38745115950314357,0,0,4.371194193858173
23,23,male,4,135,85,right,change,valid,anti,4,0.6893667397735044,1,f,1,change,0.683786205794604,0.21253550472473243,0,0,0,0.3874883652006247,0,0,4.22570066989465
23,23,male,5,105,105,left,same,valid,anti,4,0.7774727195637752,1,j,1,same,0.7677068652856178,0.2120357829262059,0,0,0,0.3874216515359876,0,0,4.3809901975810135
23,23,male,6,15,65,left,change,valid,clock,2,1.305438254256842,1,f,1,change,1.4993023931601783,0.21152799631177,0,0,0,0.3874906103719695,0,0,5.932071055185588
23,23,male,7,135,135,left,same,valid,anti,2,1.5054471066478072,1,f,0,change,1.005316245225913,0.21101000481852505,0,0,0,0.3874938177605145,0,0,5.891146070212017
23,23,male,8,75,25,left,change,valid,anti,2,1.2891011039191653,1,f,1,change,0.8849545288630907,0.21047962150806476,0,0,0,0.3874360847803473,0,0,5.528894394191411
23,23,male,9,135,85,left,change,valid,anti,1,6.161352773524413,0,f,1,change,3.8720220206414524,0.20993418817271403,0,0,0,0.38748676150680694,0,0,12.925105891907151
23,23,male,10,135,185,right,change,valid,clock,4,1.529466592170138,1,f,1,change,0.7413963426797636,0.21139618092297285,0,0,0,0.3874386506904557,0,0,5.439166438407483
23,23,male,11,135,135,right,same,valid,clock,4,1.3374778128954858,1,j,1,same,0.5806590668680656,0.21088464044888178,0,0,0,0.38752589163777884,0,0,4.928713240930847
23,23,male,12,105,155,right,same,catch,anti,1,0.8734800991214797,0,f,0,change,0.311013977154289,0,0,0,0,0.3874614231435771,0,0,5.596678365079242
23,23,male,13,45,355,left,change,valid,anti,3,1.4804554618922339,1,j,0,same,0.8588961069362995,0.21036031675889055,0,0,0,0.3874646305312126,0,0,5.612438185618885
23,23,male,14,45,355,right,change,valid,anti,3,1.2654408458265607,1,f,1,change,1.1843757236665624,0.2098213058256821,0,0,0,0.38749221406578727,0,0,5.234579360716452
23,23,male,15,165,25,right,same,catch,clock,1,4.9695314198907,0,f,0,change,0.5631236364597498,0,0,0,0,0.3874386506904557,0,0,10.463115040660341
23,23,male,16,105,155,left,change,valid,clock,1,0.9199529027182507,0,f,1,change,0.563343342520966,0.20929289721093347,0,0,0,0.38741651971486135,0,0,5.050186637893603
23,23,male,17,45,45,left,same,valid,clock,1,1.0574924257534803,0,f,0,change,0.6797580474958522,0.2107629248097751,0,0,0,0.3875473811358461,0,0,4.465521222963616
23,23,male,18,135,185,left,change,valid,clock,2,1.0493536792910163,1,f,1,change,0.8853740551840019,0.21211179119841184,0,0,0,0.3874161989760978,0,0,5.043424502261587
23,23,male,19,105,55,left,change,valid,anti,2,1.5374866652855417,1,f,1,change,0.8910437545418972,0.2116328891804089,0,0,0,0.38747681860513694,0,0,5.443484223821542
23,23,male,20,165,115,left,change,valid,anti,1,1.5215603813203415,0,f,1,change,0.999864327497562,0.2111444841080371,0,0,0,0.3875011947520761,0,0,5.165832852760104
23,23,male,21,15,15,left,same,valid,anti,1,1.0813560322303601,0,f,0,change,0.5311472633611629,0.2124444942130126,0,0,0,0.38750696804982,0,0,4.95226188192828
23,23,male,22,75,185,right,change,catch,clock,2,0.985318182489209,1,j,0,same,0.8702762394786987,0,0,0,0,0.3875143450413816,0,0,6.564037741973152
23,23,male,23,45,45,right,same,valid,anti,2,2.120146179904623,1,f,0,change,0.9201610621839791,0.213653296920082,0,0,0,0.3874726490012108,0,0,6.165612825959215
23,23,male,24,105,165,left,same,catch,anti,1,0.9534758781992423,0,f,0,change,0.48409552627163066,0,0,0,0,0.3875031191846574,0,0,6.42364749268836
23,23,male,25,165,215,left,change,valid,clock,1,0.8642598215028556,0,f,1,change,0.699559176625371,0.2132094311592962,0,0,0,0.3874784222980452,0,0,5.037610791192492
23,23,male,26,135,135,left,same,valid,clock,3,1.4814840711505894,1,f,0,change,0.9029495779395802,0.2143720952016686,0,0,0,0.3874598194497594,0,0,5.229249965200324
23,23,male,27,45,155,right,change,catch,clock,1,1.5134748774944455,0,f,1,change,0.6890764711806696,0,0,0,0,0.3875056850938563,0,0,6.720022952067666
23,23,male,28,15,325,right,change,valid,anti,4,0.944449968279514,1,f,1,change,0.6778807634364057,0.213937891051657,0,0,0,0.3874088219836267,0,0,4.77335732031861
23,23,male,29,165,215,right,change,valid,clock,4,1.8254651834849938,1,f,1,change,0.6665448928433761,0.21350331989395738,0,0,0,0.387354617130768,0,0,5.398143307367718
23,23,male,30,75,75,right,same,valid,clock,4,1.6574124976505118,1,f,0,change,1.2716160294985457,0.21306668159410685,0,0,0,0.3874732904787379,0,0,5.695366479332733
23,23,male,31,15,65,right,change,valid,clock,3,1.121453511159416,1,f,1,change,1.3444381650915602,0.2126262857655823,0,0,0,0.3874534046735789,0,0,5.60739617204672
23,23,male,32,75,125,right,change,valid,clock,1,1.0014433244959946,0,f,1,change,0.5469574398885015,0.21218043953190402,0,0,0,0.3874460276820173,0,0,4.862981998214309
23,23,male,33,45,165,left,change,catch,anti,1,0.8414091080830985,0,f,1,change,1.8298939445157885,0,0,0,0,0.3875175524299266,0,0,7.374522500145758
23,23,male,34,105,105,left,same,valid,clock,1,0.8244250276311504,0,f,0,change,0.47595838350207487,0.21335856321814028,0,0,0,0.3875044021406211,0,0,4.597389122209279
23,23,male,35,75,75,left,same,valid,clock,1,0.9454279008095909,0,f,0,change,1.4417644224995456,0.2144765480555057,0,0,0,0.3874598194488499,0,0,5.201466289392556
23,23,male,36,15,15,right,same,valid,clock,1,0.7293452246158267,0,f,0,change,3.3667211708761897,0.21556556549649925,0,0,0,0.38745757427932404,0,0,7.461636114159774
23,23,male,37,75,135,right,change,catch,anti,1,1.2014409510284167,0,f,1,change,0.8484457961094449,0,0,0,0,0.38747136604433763,0,0,6.672922462683346
23,23,male,38,75,25,right,change,valid,anti,3,1.4642578329221578,1,f,1,change,0.6691117652753746,0.2167418547758826,0,0,0,0.3874659134853573,0,0,5.31730911712657
23,23,male,39,45,95,right,change,valid,clock,3,0.8654115944500518,1,f,1,change,0.5977204453647573,0.2163381841962536,0,0,0,0.38744025438427343,0,0,4.420583795890707
23,23,male,40,165,165,left,same,valid,anti,3,1.3212500344798173,1,j,1,same,1.3879896799098788,0.21594245305911336,0,0,0,0.3875294197641779,0,0,5.54853066358919
23,23,male,41,45,95,left,change,valid,clock,2,2.5054673131908203,1,f,1,change,0.9425451006827643,0.21555322116885983,0,0,0,0.3874890066781518,0,0,6.769452967186226
23,23,male,42,105,105,right,same,valid,anti,4,0.8174704487319104,1,j,1,same,0.5909512534799433,0.21516910873133555,0,0,0,0.38746751717917505,0,0,4.621596881392179
23,23,male,43,45,45,right,same,valid,clock,3,1.1534414308534906,1,j,1,same,0.4810427345928474,0.2147887865266952,0,0,0,0.3874399336455099,0,0,4.49891301628486
23,23,male,44,165,15,left,change,catch,clock,1,0.3694705436719232,0,f,1,change,0.5477207981766696,0,0,0,0,0.38747168678492017,0,0,5.518436706372086
23,23,male,45,165,115,right,change,valid,anti,4,1.0564410440420033,1,f,1,change,0.7320554672805883,0.2143847808301773,0,0,0,0.38752845754788723,0,0,4.753029538118426
23,23,male,46,45,15,left,same,catch,anti,3,1.2334862829629856,1,j,1,same,0.7834192164864362,0,0,0,0,0.3874200478421699,0,0,6.797924948408763
23,23,male,47,15,325,left,change,valid,anti,4,0.8722907997362199,1,f,1,change,0.8475996872148244,0.21398186252921303,0,0,0,0.38745693279997795,0,0,4.846374465087138
23,23,male,48,75,125,left,change,valid,clock,4,0.9055193370204506,1,f,1,change,0.8045193376619864,0.2135785312100743,0,0,0,0.38749157258826017,0,0,4.792725131359475
23,23,male,49,165,165,right,same,valid,anti,4,0.5214824417962518,1,j,1,same,0.4972679470993171,0.213173304107031,0,0,0,0.3874322359151847,0,0,4.010480460272447
23,23,male,50,105,55,right,change,valid,anti,1,0.85747683784939,0,f,1,change,0.371263152695974,0.2127647058665903,0,0,0,0.38749413849836856,0,0,4.176097776575261
23,23,male,51,45,45,left,same,valid,anti,2,1.5212835837555758,1,j,1,same,0.9696154534503876,0.2138399546878793,0,0,0,0.38751338282418146,0,0,5.337517905241839
23,23,male,52,45,105,left,change,catch,clock,2,0.9693880496579368,1,j,0,same,1.7541575763953006,0,0,0,0,0.3875553996058443,0,0,7.140402116619953
23,23,male,53,75,75,left,same,valid,anti,1,1.0881425440093153,0,f,0,change,0.8713074146471627,0.21344299387209875,0,0,0,0.38742646261744085,0,0,5.542822154839087
23,23,male,54,165,165,right,same,valid,clock,4,0.6174356165010977,1,j,1,same,0.5511247988160903,0.21448162460692283,0,0,0,0.3874845163354621,0,0,4.323645311666041
23,23,male,55,135,135,right,same,valid,anti,4,1.0975228702791355,1,j,1,same,0.8487835340420133,0.21409223356620255,0,0,0,0.3874758563888463,0,0,4.897296236258626
23,23,male,56,105,105,right,same,valid,clock,4,0.8254356755169283,1,j,1,same,0.5898822311355616,0.21370274051863364,0,0,0,0.38746110240572307,0,0,4.525667762096418
23,23,male,57,75,75,right,same,valid,anti,4,0.6974592998521985,1,f,0,change,0.750810987998193,0.21331174983621948,0,0,0,0.38749028963502496,0,0,4.256462405246566
23,23,male,58,165,165,left,same,valid,clock,3,0.8174682035605656,1,j,1,same,1.363937799769701,0.21291787456160616,0,0,0,0.38748483707422565,0,0,5.1964117670086125
23,23,male,1,135,135,left,same,valid,anti,3,0.9524212891010393,1,f,0,change,0.8341350733626314,0.21251972730113822,0,0,0,0.38749349702084146,0,0,4.9534935188312375
23,23,male,2,105,105,right,same,valid,anti,4,0.9134739794262714,1,j,1,same,0.5631855390420242,0.2121159112900023,0,0,0,0.38748612002927985,0,0,4.511931161761822
23,23,male,3,165,165,right,same,valid,anti,4,0.8014591689916415,1,j,1,same,0.5697100072411558,0.21170501153893645,0,0,0,0.3875156279973453,0,0,4.274710517218409
23,23,male,4,105,105,right,same,valid,clock,4,1.2334474735725962,1,j,1,same,0.7333624777966179,0.21128558597533947,0,0,0,0.38745949871008634,0,0,4.7824531512906105
23,23,male,5,15,15,left,same,valid,clock,4,1.0574924257525709,1,j,1,same,0.6012161772941909,0.2108561564937484,0,0,0,0.38746559274659376,0,0,4.503908201995728
23,23,male,6,45,155,right,change,catch,clock,1,0.5774625842168462,0,f,1,change,0.37577370211329253,0,0,0,0,0.38739663391061185,0,0,5.674896930593604
23,23,male,7,135,135,left,same,valid,clock,1,0.7841822540376597,0,f,0,change,0.5956699623638997,0.21041519983164764,0,0,0,0.3874886859412072,0,0,4.690188472519367
23,23,male,8,105,165,left,same,catch,anti,1,0.6574638158544985,0,f,0,change,0.6390056199852552,0,0,0,0,0.3874652720096492,0,0,5.659334043662966
23,23,male,9,45,45,right,same,valid,clock,4,0.728504889020769,1,j,1,same,0.4087520631510415,0.21159607409999726,0,0,0,0.3874578950180876,0,0,4.304397136187617
23,23,male,10,45,45,left,same,valid,clock,2,0.6254797450237675,1,j,1,same,0.7364511922169186,0.21118036498995268,0,0,0,0.387510175436546,0,0,4.237400258260095
23,23,male,11,45,105,left,change,catch,clock,1,0.5934347338279622,0,f,1,change,0.5140445095621544,0,0,0,0,0.38747296973997436,0,0,5.518919738969998
23,23,male,12,75,25,right,change,valid,anti,2,1.0160670882887644,1,j,0,same,0.6952683332674496,0.21075437290273952,0,0,0,0.3875473811349366,0,0,4.9088053057876095
23,23,male,13,165,215,right,change,valid,clock,4,1.0814647626757505,1,f,1,change,0.5663987001098576,0.2103166026798755,0,0,0,0.3875156279955263,0,0,4.8409376220824925
23,23,male,14,45,95,left,change,valid,clock,2,1.1454813358905085,1,j,0,same,1.0100269356407807,0.20986534485031377,0,0,0,0.3874825919028808,0,0,5.307086210092166
23,23,male,15,45,355,left,change,valid,anti,3,0.99345308008742,1,f,1,change,0.827334128338407,0.2094210574735656,0,0,0,0.3875188353849808,0,0,5.306787923029333
23,23,male,16,165,15,left,change,catch,clock,2,0.8893967609237734,1,f,1,change,1.2418113786570757,0,0,0,0,0.38753872119013977,0,0,6.470375283612157
23,23,male,17,75,125,right,change,valid,clock,4,2.680436410009861,1,f,1,change,0.7326966240943875,0.20899447892961776,0,0,0,0.3874428202943818,0,0,7.0137468639768485
23,23,male,18,45,95,right,change,valid,clock,2,0.7854786801726732,1,f,1,change,0.9580518583297817,0.20858389180100245,0,0,0,0.3874328773927118,0,0,4.744206014365773
23,23,male,19,15,15,right,same,valid,clock,2,2.593490221637694,1,j,1,same,1.0009930072537827,0.20818769529349196,0,0,0,0.38752268425014336,0,0,6.600682147231055
23,23,male,20,135,85,left,change,valid,anti,2,3.489376169492971,1,j,0,same,2.792249475753124,0.2078043926961965,0,0,0,0.3874951007146592,0,0,9.561000666495602
23,23,male,21,105,155,right,same,catch,anti,1,1.0254656966681068,0,f,0,change,1.0552729134178662,0,0,0,0,0.38746430979335855,0,0,6.6418630817479425
23,23,male,22,75,25,left,change,valid,anti,1,1.1364368231206754,0,f,1,change,0.3660617319492303,0.20743258001141474,0,0,0,0.3874601401894324,0,0,4.581531155601624
23,23,male,23,15,325,left,change,valid,anti,2,0.7215275376693171,1,f,1,change,1.1169410373076971,0.20851811861354264,0,0,0,0.38744634842259984,0,0,4.91347013055929
23,23,male,24,135,85,right,change,valid,anti,2,2.4334037248027016,1,j,0,same,1.8657442005624034,0.20812970046746337,0,0,0,0.3874713660461566,0,0,7.534252335459314
23,23,male,25,15,15,right,same,valid,anti,1,0.8015393536861666,0,f,0,change,1.0185916232003365,0.2077537570365166,0,0,0,0.3875255708990153,0,0,4.789929892918735
23,23,male,26,105,55,left,change,valid,anti,2,2.3294259866415814,1,j,0,same,1.8793374306642363,0.20884883468118376,0,0,0,0.38744025438427343,0,0,7.448073995719824
23,23,male,27,15,65,right,change,valid,clock,2,1.369433017234769,1,f,1,change,0.8431029295643384,0.20845445822898317,0,0,0,0.38749542145342275,0,0,5.229393014695233
23,23,male,28,75,75,right,same,valid,anti,3,1.417437669229912,1,f,0,change,1.436589943812578,0.20807354712960296,0,0,0,0.38750408140185755,0,0,5.562128704772476
23,23,male,29,105,105,left,same,valid,anti,2,0.6655239813189837,1,j,1,same,1.0432631706571556,0.20770471173555027,0,0,0,0.38745180098158016,0,0,4.983296886717653
23,23,male,30,165,165,left,same,valid,anti,2,0.8655408521772188,1,f,0,change,1.096948747868737,0.20734664622947319,0,0,0,0.3875845868333272,0,0,5.301474243713528
23,23,male,31,75,135,right,change,catch,anti,2,0.7134532597010548,1,f,1,change,1.7890077689335158,0,0,0,0,0.3874716867831012,0,0,7.328568331149654
23,23,male,32,75,185,right,change,catch,clock,3,1.127964187591715,1,f,1,change,0.8472250643244479,0,0,0,0,0.38743255665394827,0,0,6.767262962817767
23,23,male,33,165,115,right,change,valid,anti,2,1.1764255716043408,1,f,1,change,1.5154432513663778,0.20699811937610557,0,0,0,0.3874479521145986,0,0,5.74618401040243
23,23,male,34,105,55,right,change,valid,anti,4,2.863942931589918,1,f,1,change,0.999024954118795,0.20665796606718756,0,0,0,0.3874851578129892,0,0,7.42092474121273
23,23,male,35,165,165,left,same,valid,clock,3,1.265468750099899,1,j,1,same,1.0931662754719582,0.20632507956485058,0,0,0,0.38745244245910726,0,0,5.57787056394227
23,23,male,36,135,185,right,change,valid,clock,3,0.9054465293174871,1,f,1,change,0.76693163966047,0.20599840435904093,0,0,0,0.3874745734319731,0,0,5.063447261885813
23,23,male,37,75,75,left,same,valid,anti,4,1.2094744951737084,1,j,1,same,0.8303070560596097,0.2056769295633304,0,0,0,0.3874797052540089,0,0,5.01569535204726
23,23,male,38,105,155,left,change,valid,clock,4,1.11349758580036,1,f,1,change,0.8177828483003395,0.20535968278110273,0,0,0,0.3875044021406211,0,0,5.006940787130588
23,23,male,39,45,165,left,change,catch,anti,3,1.0333581157501612,1,j,0,same,0.8419280634243478,0,0,0,0,0.387513703564764,0,0,6.439255603789206
23,23,male,40,75,75,right,same,valid,clock,4,1.2321959508662985,1,j,1,same,0.5060998100598226,0.2050457243807413,0,0,0,0.3874771393439005,0,0,4.810036044622393
23,23,male,41,15,65,left,change,valid,clock,3,0.8092226510852925,1,f,1,change,1.8188460973469773,0.20473414212419627,0,0,0,0.3874200478421699,0,0,5.764073857160838
23,23,male,42,75,75,left,same,valid,clock,4,1.217410855468188,1,j,1,same,0.7608850722390343,0.20440252221326816,0,0,0,0.38749477997589565,0,0,4.950424690214277
23,23,male,43,75,125,left,change,valid,clock,4,1.0654817079466739,1,f,1,change,0.8749599878374283,0.2040713666939532,0,0,0,0.387420689319697,0,0,4.882918479106593
23,23,male,44,165,115,left,change,valid,anti,2,0.849431426369847,1,f,1,change,1.4879418256823556,0.20373962626833797,0,0,0,0.38747810156019113,0,0,5.207637624198469
23,23,male,45,165,165,right,same,valid,clock,4,0.8093958500267036,1,j,1,same,0.6156244046287611,0.20340626006195028,0,0,0,0.38747136604433763,0,0,4.540265225308758
23,23,male,46,135,185,left,change,valid,clock,2,1.1454261688195402,1,f,1,change,0.8486834635441483,0.2030702296814214,0,0,0,0.3874691208748118,0,0,4.935233539526962
23,23,male,47,15,15,left,same,valid,anti,4,1.8894378154855076,1,j,1,same,0.8517818001273554,0.2027304933907666,0,0,0,0.3874951007146592,0,0,5.780465853827991
23,23,male,48,45,45,right,same,valid,anti,3,0.9375014834167814,1,f,0,change,1.0108133871235623,0.20238600035484866,0,0,0,0.38748932741691533,0,0,4.735292363016924
23,23,male,49,105,105,left,same,valid,clock,3,0.9374017336576799,1,f,0,change,0.9063022603750142,0.20203568490045243,0,0,0,0.3875274953315966,0,0,5.23134727606157
23,23,male,50,165,25,right,same,catch,clock,2,0.9534412384109601,1,f,0,change,2.1143161111576774,0,0,0,0,0.38743704699663795,0,0,7.6092327222831955
23,23,male,51,45,45,left,same,valid,anti,4,1.6003415226496145,1,j,1,same,0.6951701872021658,0.20167846074665968,0,0,0,0.38741395380566246,0,0,5.933964376185031
23,23,male,52,105,155,right,change,valid,clock,3,0.8734926079341676,1,j,0,same,0.8806021036616585,0.20131321515690964,0,0,0,0.3874591779731418,0,0,4.636508027129821
23,23,male,53,45,355,right,change,valid,anti,2,1.0894485923090542,1,f,1,change,0.579478106692477,0.20093880296528271,0,0,0,0.38743704699663795,0,0,4.449929790282113
23,23,male,54,165,215,left,change,valid,clock,1,0.9614959513146459,0,f,1,change,0.7204164985450916,0.2005540404291722,0,0,0,0.3874659134871763,0,0,4.779166861782869
23,23,male,55,15,325,right,change,valid,anti,3,1.4014405019934202,1,f,1,change,1.5070350843325286,0.20158480258654055,0,0,0,0.38748804446186114,0,0,5.875967428335571
23,23,male,56,45,15,left,same,catch,anti,1,0.9054474915337778,0,f,0,change,0.733966749652609,0,0,0,0,0.3874024072083557,0,0,6.642014791188558
23,23,male,57,135,135,right,same,valid,clock,4,1.0323984653277876,1,j,1,same,0.9075755933190521,0.20122190411771645,0,0,0,0.38751402430352755,0,0,5.210214118793374
23,23,male,58,135,135,right,same,valid,anti,4,1.7134769943695574,1,j,1,same,0.5955394216816785,0.20084962822856894,0,0,0,0.3874671964422305,0,0,5.42257333852649
23,23,male,1,105,105,left,same,valid,clock,1,1.6324343239230075,0,j,1,same,1.0119658015482855,0.20046680747429285,0,0,0,0.3874813089478266,0,0,5.297374560666867
23,23,male,2,45,45,right,same,valid,clock,3,1.1453312301418919,1,f,0,change,1.3171484270005749,0.20149298501872553,0,0,0,0.3874373677354015,0,0,5.936743577687594
23,23,male,3,165,115,right,change,valid,anti,4,0.9534486154025217,1,f,1,change,0.7235241365542606,0.20113227568961217,0,0,0,0.38748676150680694,0,0,5.1040954492946184
23,23,male,4,45,45,left,same,valid,clock,2,0.7773505180884968,1,j,1,same,0.877239157585791,0.20076198702338838,0,0,0,0.3875204390787985,0,0,4.577832075288825
23,23,male,5,45,105,left,change,catch,clock,1,0.6894764324351854,0,f,1,change,0.43280715067885467,0,0,0,0,0.387543532271593,0,0,5.674849781993544
23,23,male,6,105,105,left,same,valid,anti,2,1.9523956299981364,1,f,0,change,1.1272912776366866,0.2003809668643321,0,0,0,0.3874857992905163,0,0,6.278372071094054
23,23,male,7,165,215,left,change,valid,clock,1,1.4174864215237903,0,f,1,change,1.528637803170568,0.1999878397125056,0,0,0,0.3874527631978708,0,0,6.405239332068959
23,23,male,8,165,165,right,same,valid,anti,4,0.9454166749528667,1,j,1,same,0.5705894729690044,0.20104423871895277,0,0,0,0.38750728878767404,0,0,4.824303467636128
23,23,male,9,75,25,right,change,valid,anti,2,1.0654470681602106,1,f,1,change,0.8256666074375971,0.2006757955318203,0,0,0,0.38747938451524533,0,0,4.641950001956502
23,23,male,10,105,105,right,same,valid,anti,2,0.8974091363088519,1,f,0,change,2.476081867929679,0.20029644153962073,0,0,0,0.3874309529601305,0,0,6.424226746919885
23,23,male,11,15,65,right,change,valid,clock,3,1.2174326657041092,1,f,1,change,1.2414662637329457,0.19990434048562766,0,0,0,0.3875124206097098,0,0,5.442932873864265
23,23,male,12,165,25,right,same,catch,clock,2,0.6410464808213874,1,j,1,same,2.1900069343737414,0,0,0,0,0.3875050436181482,0,0,7.873557397166223
23,23,male,13,15,15,right,same,valid,clock,4,1.5601680286290502,1,j,1,same,0.49800853293345426,0.19951545120391828,0,0,0,0.3874415373393276,0,0,5.3110107697666535
23,23,male,14,75,25,left,change,valid,anti,2,0.7214569751376985,1,f,1,change,1.5853158731697476,0.19914189095019214,0,0,0,0.3875194768625079,0,0,5.181165128509747
23,23,male,15,45,95,right,change,valid,clock,4,1.193413180182688,1,f,1,change,0.8542130000550969,0.19878233816340668,0,0,0,0.38742902852754924,0,0,5.240940252138898
23,23,male,16,105,165,left,same,catch,anti,2,0.4654387930986559,1,f,0,change,1.263038512388448,0,0,0,0,0.38750728878949303,0,0,6.04923532668181
23,23,male,17,45,355,right,change,valid,anti,2,5.0484068584228226,1,f,1,change,1.1231636903175968,0.19843555643058147,0,0,0,0.38746623422412085,0,0,9.447428027822752
23,23,male,18,75,75,right,same,valid,anti,4,2.617504254600135,1,f,0,change,0.23568238136977016,0.19810038620399695,0,0,0,0.3875428907940659,0,0,6.256487422870123
23,23,male,19,45,355,left,change,valid,anti,4,0.841488330561333,1,f,1,change,0.8071266231800109,0.19777573724075515,0,0,0,0.3874614231444866,0,0,4.647862179830554
23,23,male,20,75,75,left,same,valid,anti,4,0.7451861920671945,1,f,0,change,0.7555415642182197,0.19746058168639768,0,0,0,0.38753070271923207,0,0,4.461971606920997
23,23,male,21,45,15,left,same,catch,anti,1,1.1694924822040775,0,f,0,change,0.8608138040835911,0,0,0,0,0.38750953396083787,0,0,6.533042188053514
23,23,male,22,105,105,right,same,valid,clock,4,1.864438473001428,1,f,0,change,0.581311770278262,0.19715394773250977,0,0,0,0.3874899688944424,0,0,5.621142715284805
23,23,male,23,105,55,right,change,valid,anti,3,0.8654863265855965,1,f,1,change,0.6885921556258836,0.19685491378548964,0,0,0,0.3874665549647034,0,0,4.339895221055485
23,23,male,24,15,15,left,same,valid,clock,2,0.13738588916203298,1,j,1,same,3.828889390666518,0.19656260309004542,0,0,0,0.38743576404158375,0,0,6.649482872870067
23,23,male,25,45,155,right,change,catch,clock,2,5.113427985485032,1,f,1,change,0.7271334100114473,0,0,0,0,0.3874386506904557,0,0,10.322626324570592
23,23,male,26,105,155,right,change,valid,clock,4,0.7679673051716236,1,f,1,change,0.9390936307063384,0.19627617875659809,0,0,0,0.3874287077887857,0,0,4.682261092910267
23,23,male,27,45,45,left,same,valid,anti,2,0.9373831308075751,1,j,1,same,2.325957196770105,0.19599483914671656,0,0,0,0.3874995910573489,0,0,6.272788329726609
23,23,male,28,165,165,left,same,valid,anti,2,2.817323871111512,1,f,0,change,4.229437276645513,0.1957178135750554,0,0,0,0.38750536435691174,0,0,9.680474577924542
23,23,male,29,135,135,right,same,valid,anti,2,5.7935167146588356,1,j,1,same,2.0410090185323497,0.19544435829008688,0,0,0,0.3874194063646428,0,0,10.615289232606301
23,23,male,30,165,165,right,same,valid,clock,4,1.1374763374951726,1,j,1,same,0.8474559962451167,0.19517375269926962,0,0,0,0.3875274953315966,0,0,5.2371436672383425
23,23,male,31,75,185,right,change,catch,clock,3,1.4974671258805756,1,f,1,change,0.7991129648380593,0,0,0,0,0.3874864407680434,0,0,6.704492139013382
23,23,male,32,105,55,left,change,valid,anti,2,0.6957173675546073,1,f,1,change,1.4981191878123354,0.19490529580722554,0,0,0,0.38751723169116303,0,0,5.485525379737737
23,23,male,33,135,85,left,change,valid,anti,3,1.0654374459954852,1,f,1,change,0.9291144851395075,0.1946198165113382,0,0,0,0.38752268425014336,0,0,5.05582394263547
23,23,male,34,75,75,right,same,valid,clock,4,1.145464657474804,1,j,1,same,0.8182886533522833,0.19433506042371634,0,0,0,0.387450518024707,0,0,4.856150262268784
23,23,male,35,135,185,left,change,valid,clock,2,1.1450707902549766,1,j,0,same,1.8850943709694548,0.19405021991502774,0,0,0,0.38747136604433763,0,0,5.987365458100612
23,23,male,36,15,325,left,change,valid,anti,4,4.201464364959975,1,f,1,change,0.825234893043671,0.1937644946204411,0,0,0,0.3874591779731418,0,0,8.507822498029782
23,23,male,37,75,125,left,change,valid,clock,2,0.7774893979785702,1,f,1,change,0.8052859033377899,0.1934770874361419,0,0,0,0.38740529385722766,0,0,5.029034557037448
23,23,male,38,75,125,right,change,valid,clock,2,1.0494175063067814,1,f,1,change,0.8584005655266083,0.1931872005963587,0,0,0,0.38751466578105465,0,0,4.755600580152532
23,23,male,39,165,15,left,change,catch,clock,1,0.8309280063331244,0,f,1,change,0.9979995522498939,0,0,0,0,0.38752268425014336,0,0,6.329965790002461
23,23,male,40,75,75,left,same,valid,clock,2,0.5755269256987958,1,f,0,change,0.9628350357070303,0.1928940318004267,0,0,0,0.38739053987410443,0,0,5.157938829983323
23,23,male,41,135,135,left,same,valid,clock,2,5.841362921699329,1,f,0,change,1.5303075692427228,0.19259677036047113,0,0,0,0.3875098546996014,0,0,10.544940955198399
23,23,male,42,15,65,left,change,valid,clock,2,0.8734233283576032,1,f,1,change,0.9864378815582313,0.19229459334103338,0,0,0,0.38747361121750146,0,0,5.125932307439143
23,23,male,43,105,155,left,change,valid,clock,1,0.6895104307459405,0,f,1,change,0.40332612526435696,0.19198666166241019,0,0,0,0.3874248589236231,0,0,4.128164649326209
23,23,male,44,15,15,left,same,valid,anti,2,0.5054948967263044,1,j,1,same,1.1172669079060142,0.19280469753487212,0,0,0,0.3874627060995408,0,0,4.464341225004318
23,23,male,45,15,325,right,change,valid,anti,3,1.1454765248072363,1,f,1,change,0.6446698667841702,0.19250964988511193,0,0,0,0.3874989495798218,0,0,4.761328333230267
23,23,male,46,135,135,left,same,valid,anti,1,0.8173453606104886,0,f,0,change,2.7086954206843075,0.19220947603863348,0,0,0,0.3875063265713834,0,0,6.650404034637177
23,23,male,47,75,135,right,change,catch,anti,2,3.073458160588416,1,f,1,change,0.7020109038348892,0,0,0,0,0.3875098546996014,0,0,8.233612974781863
23,23,male,48,165,165,left,same,valid,clock,2,0.4563599612811231,1,j,1,same,1.7555672233193036,0.1930056173738543,0,0,0,0.38747104530739307,0,0,5.389258522511227
23,23,male,49,165,115,left,change,valid,anti,2,0.7454318779709865,1,f,1,change,0.8159007531576208,0.1927171769121101,0,0,0,0.387434160347766,0,0,4.325639986118404
23,23,male,50,45,95,left,change,valid,clock,3,0.9214433758133964,1,j,0,same,0.868879101368293,0.19242420513831765,0,0,0,0.3874659134871763,0,0,4.6114817425877845
23,23,male,51,135,85,right,change,valid,anti,2,0.7214614654803881,1,f,1,change,0.8241815868987032,0.1921259048327878,0,0,0,0.3875316649355227,0,0,4.448254892387922
23,23,male,52,135,135,right,same,valid,clock,4,1.076944270354943,1,j,1,same,0.9953447973930452,0.19182146081462093,0,0,0,0.3874726490012108,0,0,4.912057596986415
23,23,male,53,105,155,right,same,catch,anti,3,0.6173798079544213,1,j,1,same,0.7162093680090038,0,0,0,0,0.3874473106370715,0,0,6.251994834821744
23,23,male,54,45,165,left,change,catch,anti,1,0.5362800460061408,0,f,1,change,0.38984130486642243,0,0,0,0,0.38751402430352755,0,0,5.628439843198066
23,23,male,55,135,185,right,change,valid,clock,2,0.5444518285639788,1,f,1,change,0.7985773310811055,0.1915100361839701,0,0,0,0.3874601401894324,0,0,4.404086596903653
23,23,male,56,15,15,right,same,valid,anti,4,1.0972646755617461,1,j,1,same,1.4905526393267792,0.19119076845954797,0,0,0,0.3874328773927118,0,0,5.554396013601945
23,23,male,57,45,45,right,same,valid,anti,3,1.9294849384277768,1,j,1,same,0.4283860873783851,0.19086276558489157,0,0,0,0.3874261418786773,0,0,5.816690091287455
23,23,male,58,165,215,right,change,valid,clock,4,0.8014527542163705,1,f,1,change,0.7757471449440345,0.19052510177613324,0,0,0,0.38745757427750505,0,0,4.556472797183233
23,23,male,1,45,95,left,change,valid,clock,1,1.9281811352993827,0,f,1,change,0.4319257605202438,0.1901768131830146,0,0,0,0.38740657681228186,0,0,5.561485944264859
23,23,male,2,105,155,right,change,valid,clock,3,1.1614685602216923,1,f,1,change,0.9530897087115591,0.19111285368177322,0,0,0,0.3874514802428166,0,0,4.961828878163942
23,23,male,3,45,165,left,change,catch,anti,2,0.8254696738276834,1,j,0,same,1.2984211312978005,0,0,0,0,0.38753262715181336,0,0,6.42366737849261
23,23,male,4,135,135,left,same,valid,anti,2,0.39994521781591175,1,j,1,same,0.9796151262962667,0.19078592400073063,0,0,0,0.387414274542607,0,0,4.86020504188491
23,23,male,5,165,165,right,same,valid,anti,4,1.3614523949891009,1,j,1,same,0.5194390150500112,0.19044918658062404,0,0,0,0.3874665549647034,0,0,5.191094880303353
23,23,male,6,105,155,left,change,valid,clock,3,1.2091024381916213,1,j,0,same,1.3814135727661778,0.19010168561095808,0,0,0,0.3875262123765424,0,0,5.465936579681511
23,23,male,7,15,65,right,change,valid,clock,4,1.2014518561481964,1,f,1,change,0.6591499396035942,0.18974440433712414,0,0,0,0.3875111376528366,0,0,5.229378581449055
23,23,male,8,165,215,left,change,valid,clock,2,1.4094487077745725,1,f,1,change,2.339544653572375,0.18939837568833345,0,0,0,0.38747938451524533,0,0,6.84158679736538
23,23,male,9,135,135,right,same,valid,anti,4,0.9774042739081779,1,j,1,same,0.6731780914888077,0.18906557846729383,0,0,0,0.3874466691595444,0,0,4.776184953374468
23,23,male,10,15,65,left,change,valid,clock,4,2.505391618838985,1,j,0,same,2.114306488994771,0.1887449567825476,0,0,0,0.3875194768625079,0,0,7.23328293457962
23,23,male,11,165,25,right,same,catch,clock,1,0.9934274209845171,0,f,0,change,0.3637103959772503,0,0,0,0,0.38746623422593984,0,0,5.8310152472804475
23,23,male,12,105,105,right,same,valid,clock,3,0.976178410304783,1,j,1,same,0.9476977691338107,0.18843551899991723,0,0,0,0.38748868593938823,0,0,5.157720406876251
23,23,male,13,165,115,right,change,valid,anti,3,2.585478166991379,1,f,1,change,0.7268787434222759,0.18813633191299706,0,0,0,0.38745693280179694,0,0,6.344280682353201
23,23,male,14,105,55,right,change,valid,anti,4,1.0254198310231004,1,f,1,change,0.6019147463503032,0.18784651539161773,0,0,0,0.38749991179611243,0,0,4.528533883805721
23,23,male,15,45,45,left,same,valid,clock,1,0.969462461054718,0,f,0,change,0.4416736534276424,0.18756523745989984,0,0,0,0.3874168404545344,0,0,4.612137332645943
23,23,male,16,105,105,left,same,valid,clock,1,1.025473394398432,0,f,0,change,0.8035696301431017,0.1883862784596672,0,0,0,0.3874732904787379,0,0,4.520991390731069
23,23,male,17,15,15,left,same,valid,clock,2,1.1613983184306562,1,f,0,change,1.4574411716967006,0.189270401533488,0,0,0,0.3874546876304521,0,0,5.819018654809042
23,23,male,18,75,25,right,change,valid,anti,4,1.457450793859607,1,f,1,change,0.9764138325645035,0.1889484150008397,0,0,0,0.38741459528318956,0,0,5.8397338894519635
23,23,male,19,105,55,left,change,valid,anti,1,0.7534330274993408,0,f,1,change,1.223214302897759,0.18863800030606614,0,0,0,0.38748419559669856,0,0,4.660130758784362
23,23,male,20,75,75,left,same,valid,anti,1,0.85750313842982,0,f,0,change,0.35390477009241295,0.1895378368542628,0,0,0,0.3874851578129892,0,0,4.37028810681295
23,23,male,21,165,15,left,change,catch,clock,1,0.8334425983430265,0,f,1,change,0.37806955027917866,0,0,0,0,0.3874912518494966,0,0,5.534455042365153
23,23,male,22,15,15,right,same,valid,anti,4,1.4320473205170856,1,j,1,same,0.5810439533997851,0.19048789946560357,0,0,0,0.387470403829866,0,0,5.261464005732705
23,23,male,23,135,85,right,change,valid,anti,4,1.473435131545557,1,f,1,change,0.71107690610188,0.19015399352309137,0,0,0,0.38749862884105823,0,0,5.138946604050943
23,23,male,24,135,135,left,same,valid,clock,4,0.8014530749551341,1,j,1,same,0.6099428379347955,0.18980904192285708,0,0,0,0.3874408958618005,0,0,4.461180344356762
23,23,male,25,45,45,right,same,valid,clock,4,2.2494039069824794,1,j,1,same,0.8631301795303443,0.18947237082267826,0,0,0,0.38749477997589565,0,0,5.998535827484375
23,23,male,26,15,15,right,same,valid,clock,4,1.0814500086926273,1,j,1,same,0.49148117808726965,0.18914864980249463,0,0,0,0.3875124206097098,0,0,4.7907535500962695
23,23,male,27,75,75,right,same,valid,anti,2,0.8414710106662824,1,f,0,change,0.9877397602540441,0.18883687979508718,0,0,0,0.3874963836697134,0,0,4.952369970895234
23,23,male,28,165,165,right,same,valid,clock,4,1.217466984755447,1,j,1,same,0.5798697287373216,0.18853612209101084,0,0,0,0.38747553565008275,0,0,4.99805792670486
23,23,male,29,165,165,left,same,valid,anti,4,0.64143168809278,1,j,1,same,0.8720374161021027,0.18824549300969023,0,0,0,0.3875502677856275,0,0,4.669081936570365
23,23,male,30,45,355,left,change,valid,anti,2,1.0494758807653852,1,j,0,same,0.9804516130261618,0.18796415900215946,0,0,0,0.3874851578129892,0,0,5.130608358067548
23,23,male,31,165,115,left,change,valid,anti,2,0.7374470861213922,1,f,1,change,0.8420823387768905,0.1876913321428021,0,0,0,0.3875088924833108,0,0,4.5097026687381
23,23,male,32,45,15,left,same,catch,anti,1,2.3770143197034486,0,f,0,change,7.777180526538359,0,0,0,0,0.38753583453944884,0,0,14.84697168069033
23,23,male,33,45,355,right,change,valid,anti,4,1.1523220525232318,1,f,1,change,1.296739818630158,0.18742626597157963,0,0,0,0.3874713660461566,0,0,5.57868491969748
23,23,male,34,75,75,left,same,valid,clock,2,3.753409613567783,1,f,0,change,1.2018691372959438,0.1871682516519142,0,0,0,0.3875191561237443,0,0,8.536884959339659
23,23,male,35,75,125,left,change,valid,clock,4,2.457467793015894,1,f,1,change,1.0165093870618875,0.18691661441266966,0,0,0,0.3874578950162686,0,0,6.762580176675328
23,23,male,36,15,325,right,change,valid,anti,4,1.625467236213808,1,f,1,change,0.7127819534398441,0.18667071024559379,0,0,0,0.3874665549647034,0,0,5.590466617186394
23,23,male,37,75,75,right,same,valid,clock,4,1.4253172587614245,1,j,1,same,0.767837085228166,0.18642992283218462,0,0,0,0.38739182282733964,0,0,4.916565580495444
23,23,male,38,135,85,left,change,valid,anti,4,1.0894556485636713,1,f,1,change,2.118532543117908,0.18619366067625914,0,0,0,0.38741780266900605,0,0,5.9684842077840585
23,23,male,39,75,25,left,change,valid,anti,3,1.3615235989964276,1,f,1,change,0.9925309561040194,0.18596135442056294,0,0,0,0.3874408958618005,0,0,5.745083555659221
23,23,male,40,105,165,left,same,catch,anti,1,0.9374190535509115,0,f,0,change,0.8307169602176145,0,0,0,0,0.38745115950405307,0,0,5.955656581143558
23,23,male,41,105,105,left,same,valid,anti,2,0.9923365884042141,1,f,0,change,0.9170309724613617,0.18573245432758956,0,0,0,0.3874745734337921,0,0,4.978239477683019
23,23,male,42,165,215,right,change,valid,clock,4,0.7774954920168966,1,f,1,change,0.708105582074495,0.1855064279064057,0,0,0,0.38744314103496436,0,0,4.368424935257281
23,23,male,43,75,135,right,change,catch,anti,1,1.0495146901575936,0,f,1,change,0.40938840888520645,0,0,0,0,0.3874117086343176,0,0,5.877713209498324
23,23,male,44,15,325,left,change,valid,anti,3,1.0322756223777105,1,f,1,change,0.8458972057887877,0.1852827576687197,0,0,0,0.38747810156019113,0,0,4.795627817289642
23,23,male,45,105,105,right,same,valid,anti,2,1.7294263715266425,1,j,1,same,2.8313972471623856,0.18506093899870474,0,0,0,0.3874546876286331,0,0,7.6619278581511026
23,23,male,46,165,165,left,same,valid,clock,4,0.761453421353508,1,j,1,same,0.9460094002115511,0.184840478122213,0,0,0,0.3874335188702389,0,0,4.7132553638748504
23,23,male,47,105,155,right,same,catch,anti,2,0.345461642529699,1,j,1,same,1.7396646740235155,0,0,0,0,0.38754577744293783,0,0,6.6576094312604255
23,23,male,48,45,45,left,same,valid,anti,2,4.52830551779698,1,f,0,change,1.0997991533786262,0.18460566309948223,0,0,0,0.38745436689168855,0,0,8.850475751827616
23,23,male,49,75,185,right,change,catch,clock,1,0.873488759067186,0,f,1,change,0.3924360815726686,0,0,0,0,0.387483874857935,0,0,5.923947704184684
23,23,male,50,45,95,right,change,valid,clock,2,0.8641106779723486,1,j,0,same,1.3766842795030243,0.18437116914780588,0,0,0,0.38749157258826017,0,0,5.617842313269648
23,23,male,51,75,125,right,change,valid,clock,4,0.905422473908402,1,f,1,change,0.7572725913960312,0.18413641905849798,0,0,0,0.387493817761424,0,0,4.872741437717195
23,23,male,52,45,45,right,same,valid,anti,4,0.753447140004937,1,j,1,same,1.6175629497975024,0.18390083906539756,0,0,0,0.38740593533475476,0,0,5.172462844016991
23,23,male,53,135,185,right,change,valid,clock,4,0.8894355703141628,1,f,1,change,0.7276546105240413,0.18366385645673333,0,0,0,0.3874527631960518,0,0,4.607701515362351
23,23,male,54,45,155,right,change,catch,clock,1,0.6814884331979556,0,f,1,change,0.3096447433163121,0,0,0,0,0.3874758563888463,0,0,5.3938082020613365
23,23,male,55,135,185,left,change,valid,clock,1,1.0484251405323448,0,f,1,change,1.4644326355555677,0.18342489722141814,0,0,0,0.3874566120612144,0,0,5.684436664034365
23,23,male,56,15,15,left,same,valid,anti,3,1.0573929967322329,1,j,1,same,0.7745681092001178,0.18405299934992525,0,0,0,0.38743576404158375,0,0,5.357578191302309
23,23,male,57,45,105,left,change,catch,clock,2,1.0574565030110534,1,f,1,change,0.9464337376139156,0,0,0,0,0.3874726490012108,0,0,6.673369893278505
23,23,male,58,135,135,right,same,valid,clock,4,1.1124381856188847,1,j,1,same,0.5181499659065594,0.1838196465030973,0,0,0,0.3874986288428772,0,0,4.791574962104278
23,23,male,1,45,45,right,same,valid,clock,3,1.1682582793891925,1,j,1,same,1.1030235403013648,0.1835846951617911,0,0,0,0.3875303819804685,0,0,5.408799853230448
23,23,male,2,15,15,left,same,valid,clock,4,0.9055161296309961,1,j,1,same,0.6319317262605182,0.1833475811630877,0,0,0,0.3875104961771285,0,0,5.050639841787415
23,23,male,3,45,355,left,change,valid,anti,4,0.9534643316019356,1,f,1,change,0.8859953261962801,0.18310773592841117,0,0,0,0.3874360847803473,0,0,4.52280837590115
23,23,male,4,45,105,left,change,catch,clock,4,0.6894228690598538,1,f,1,change,1.7444908303987177,0,0,0,0,0.38747168678492017,0,0,6.84499336391309
23,23,male,5,165,115,right,change,valid,anti,2,0.9123885994031298,1,f,1,change,1.618989275135391,0.18286458419892965,0,0,0,0.38748483707422565,0,0,6.059824196661793
23,23,male,6,75,75,left,same,valid,clock,1,0.769439175419393,0,f,0,change,0.5849672301192186,0.1826175417554794,0,0,0,0.38747232826244726,0,0,4.429730303590986
23,23,male,7,15,325,left,change,valid,anti,2,0.721453767750063,1,f,1,change,0.6417466535713174,0.18327169017221745,0,0,0,0.38741780266900605,0,0,4.405865093422108
23,23,male,8,165,15,left,change,catch,clock,1,0.7454761399221752,0,f,1,change,0.9396796204509883,0,0,0,0,0.38748066746848053,0,0,6.002425747368761
23,23,male,9,165,165,right,same,valid,clock,4,0.7758914773930883,1,j,1,same,0.5120726075620041,0.18303341286739455,0,0,0,0.3874713660461566,0,0,4.253819196985205
23,23,male,10,105,155,left,change,valid,clock,3,0.8015059968529386,1,j,0,same,0.9817358510899794,0.18279166605666497,0,0,0,0.387394388739267,0,0,4.6415186083013396
23,23,male,11,135,185,right,change,valid,clock,4,1.2894519921410392,1,f,1,change,0.9671701410152309,0.18254587274798384,0,0,0,0.38748227116411726,0,0,5.4707624153179495
23,23,male,12,75,125,right,change,valid,clock,4,0.7774634181387228,1,f,1,change,0.6914890682601254,0.18229544411484505,0,0,0,0.38753391010686755,0,0,4.505896461674638
23,23,male,13,45,95,left,change,valid,clock,3,1.3294131570892205,1,f,1,change,1.1754765055629832,0.1820397771922846,0,0,0,0.3874886859412072,0,0,5.444355029601866
23,23,male,14,45,45,right,same,valid,anti,1,0.7534211601650895,0,f,0,change,0.5974192716530524,0.18177825251220397,0,0,0,0.38751209986912727,0,0,4.6466225244585075
23,23,male,15,45,95,right,change,valid,clock,2,0.8493182055808575,1,f,1,change,0.8829717217449797,0.18247529205806584,0,0,0,0.3875230049889069,0,0,4.740738186708768
23,23,male,16,15,65,right,change,valid,clock,4,0.8573700318356714,1,f,1,change,0.6798436847493576,0.1822258818866737,0,0,0,0.3874906103719695,0,0,4.684899490088355
23,23,male,17,135,185,left,change,valid,clock,2,0.8093050809511624,1,f,1,change,1.324648261821494,0.18197109449757165,0,0,0,0.38754321153282945,0,0,4.923985872097546
23,23,male,18,15,15,left,same,valid,anti,3,1.3532809331700264,1,j,1,same,1.1379677093027567,0.18171031574623714,0,0,0,0.38757688910300203,0,0,5.792916291668007
23,23,male,19,165,165,right,same,valid,anti,4,0.865479591069743,1,j,1,same,0.5115132391347288,0.18144291214186237,0,0,0,0.3874473106370715,0,0,4.627782649442452
23,23,male,20,45,15,left,same,catch,anti,2,0.7854741898299835,1,f,0,change,0.8311858803099312,0,0,0,0,0.3874572535387415,0,0,5.862046723941603
23,23,male,21,135,135,right,same,valid,clock,3,3.8563776660612348,1,f,0,change,1.4036491092119832,0.18116822835722513,0,0,0,0.387450518024707,0,0,8.373882947023958
23,23,male,22,45,155,right,change,catch,clock,4,0.929360491782063,1,j,0,same,1.1019564423913835,0,0,0,0,0.3874764978663734,0,0,6.9538819334902655
23,23,male,23,165,215,left,change,valid,clock,3,1.3124213789069472,1,f,1,change,0.8377728925697738,0.18088558463294097,0,0,0,0.3874931762838969,0,0,5.675981027659873
23,23,male,24,75,75,right,same,valid,anti,1,0.8014784133192734,0,f,0,change,0.46295402979558276,0.18059427406096656,0,0,0,0.38747296973997436,0,0,4.204025143355466
23,23,male,25,135,135,right,same,valid,anti,4,0.9215059198759263,1,j,1,same,0.67544186577652,0.1813763392663988,0,0,0,0.3874591779731418,0,0,4.510467951460669
23,23,male,26,15,65,left,change,valid,clock,4,0.9774783645643765,1,f,1,change,0.8371984494206117,0.1811020835287302,0,0,0,0.38744378251067246,0,0,4.672871144479359
23,23,male,27,165,115,left,change,valid,anti,3,0.7934246626318782,1,f,1,change,0.8913330609193508,0.18081975054311344,0,0,0,0.3874479521145986,0,0,4.5832855967128125
23,23,male,28,75,25,right,change,valid,anti,4,0.8334486923813529,1,f,1,change,0.6275411331444047,0.18052863707173267,0,0,0,0.3874155574976612,0,0,4.483565024333075
23,23,male,29,105,105,left,same,valid,clock,4,0.8494362374513003,1,j,1,same,0.9623443053787923,0.1802280096276172,0,0,0,0.38750215696745727,0,0,4.48521682903629
23,23,male,30,165,165,left,same,valid,clock,3,1.3533595141707337,1,j,1,same,2.306560519236882,0.1799160149052571,0,0,0,0.38747168678492017,0,0,6.598061711423725
23,23,male,31,165,165,left,same,valid,anti,2,0.5773525708173111,1,f,0,change,1.921859053269145,0.1796050208950033,0,0,0,0.3875528336939169,0,0,5.614997360318739
23,23,male,32,135,135,left,same,valid,clock,1,0.7294488232419098,0,f,0,change,0.5777669653161865,0.17930601538959073,0,0,0,0.3874771393439005,0,0,4.1738599821273965
23,23,male,33,45,165,left,change,catch,anti,1,0.7935279405173787,0,f,1,change,0.4357601925967174,0,0,0,0,0.3874745734337921,0,0,5.799619090626948
23,23,male,34,75,75,left,same,valid,anti,1,0.7602464813353436,0,f,0,change,1.0187090135932522,0.1801629316647121,0,0,0,0.3874566120612144,0,0,5.130619263185508
23,23,male,35,105,165,left,same,catch,anti,1,0.8974027215335809,0,f,0,change,0.6343093628147471,0,0,0,0,0.387463989054595,0,0,6.298951312495774
23,23,male,36,45,355,right,change,valid,anti,4,0.7680632060655626,1,f,1,change,0.6256657735157205,0.1809717019452431,0,0,0,0.38748612002927985,0,0,4.64521512270403
23,23,male,37,135,135,left,same,valid,anti,2,0.553433797271282,1,j,1,same,1.4540455102669512,0.18068981110187737,0,0,0,0.3875329478905769,0,0,4.834396154727074
23,23,male,38,105,55,left,change,valid,anti,2,1.0734443688215833,1,f,1,change,0.9907867786332645,0.1803989189489288,0,0,0,0.38746495127088565,0,0,5.068513010128299
23,23,male,39,75,185,right,change,catch,clock,1,0.6094495416964492,0,f,1,change,0.28395228433328157,0,0,0,0,0.3875367967557395,0,0,5.2537358049048635
23,23,male,40,105,155,right,same,catch,anti,1,0.80831752625636,0,f,0,change,0.1659111130211386,0,0,0,0,0.38742101005664153,0,0,5.7996383349545795
23,23,male,41,135,85,left,change,valid,anti,1,0.7684294897499058,0,f,1,change,0.43535606173827546,0.18009829815317713,0,0,0,0.387470403829866,0,0,4.438512772780086
23,23,male,42,15,15,right,same,valid,anti,4,0.8814671361415094,1,j,1,same,0.4345025758520933,0.18090740032448438,0,0,0,0.3874713660461566,0,0,4.238931465179121
23,23,male,43,165,215,right,change,valid,clock,3,0.9374870501724217,1,f,1,change,0.5538411355173594,0.18062564465046088,0,0,0,0.3874678379179386,0,0,4.186073714750819
23,23,male,44,45,45,left,same,valid,clock,4,0.7853279329465295,1,j,1,same,0.6302943548053008,0.18033478022103688,0,0,0,0.38745757427750505,0,0,4.348156489731991
23,23,male,45,75,135,right,change,catch,anti,1,0.8975207534022047,0,f,1,change,0.9393277700128237,0,0,0,0,0.3874646305303031,0,0,6.158403901208658
23,23,male,46,105,105,left,same,valid,anti,1,1.3605732500000158,0,f,0,change,0.11143587694095913,0.18003408245613212,0,0,0,0.38753647601697594,0,0,4.702591441022378
23,23,male,47,165,25,right,same,catch,clock,1,0.9454529184349667,0,f,0,change,0.4052293891672889,0,0,0,0,0.387490289633206,0,0,6.033766416212529
23,23,male,48,15,325,right,change,valid,anti,4,1.1042628749346477,1,f,1,change,0.5256706487452902,0.18084365039931394,0,0,0,0.38754385300853755,0,0,4.966846836328841
23,23,male,49,75,125,left,change,valid,clock,1,0.8094673747727938,0,f,1,change,0.6879057746446051,0.1805619749713141,0,0,0,0.3874720075236837,0,0,4.8049019790214516
23,23,male,50,75,75,right,same,valid,clock,2,1.1694777282209543,1,f,0,change,0.703260181371661,0.18131848963902825,0,0,0,0.3875560410833714,0,0,4.790642574480444
23,23,male,51,45,45,left,same,valid,anti,1,0.8014675081994937,0,f,0,change,0.8620136878489575,0.1810534413732709,0,0,0,0.3874598194488499,0,0,4.704350051735673
23,23,male,52,105,105,right,same,valid,anti,4,0.881444684428061,1,j,1,same,0.493937395638568,0.18176347828274497,0,0,0,0.38754866409180977,0,0,4.343332578528134
23,23,male,53,105,55,right,change,valid,anti,4,1.1694761245271366,1,f,1,change,0.7739965526980086,0.18151290363491807,0,0,0,0.3874797052540089,0,0,4.637825301286284
23,23,male,54,135,85,right,change,valid,anti,3,1.1534398271596729,1,f,1,change,1.3182700505039975,0.18125548921993345,0,0,0,0.3875367967557395,0,0,5.482331142260591
23,23,male,55,105,105,right,same,valid,clock,4,0.8334595974974945,1,j,1,same,0.6276075260702783,0.1809906281378294,0,0,0,0.38750857174272824,0,0,4.822254267590324
23,23,male,56,15,15,right,same,valid,clock,4,0.9455661392221373,1,j,1,same,0.5023625618305232,0.18071768956111733,0,0,0,0.3875095339590189,0,0,4.481002962984348
23,23,male,57,105,155,right,change,valid,clock,4,0.5374241212230118,1,f,1,change,1.3638585772932856,0.18043601634113632,0,0,0,0.3874566120630334,0,0,4.738400001026093
23,23,male,58,75,25,left,change,valid,anti,2,1.3935163297737745,1,f,1,change,0.7880035358248278,0.18014492248676445,0,0,0,0.38751209987094626,0,0,5.2506948805603315
