subject,age,gender,ntrial,memory_ori,test_ori,cue,type,trial_type,which_change,pas,pas_rt,vis,test_key,test_acc,test,test_rt,contrast,fix_dur,cue_dur,jitter_dur,target_dur,mask_dur,retention_dur,trial_dur
24,23,female,1,15,15,right,same,valid,anti,1,3.3283396444030586,0,j,0,change,1.2838368183738567,0.5,0,0,0,0.3874870822455705,0,0,7.760894052925323
24,23,female,2,75,75,left,same,valid,anti,1,1.1455156549391177,0,j,0,change,1.0689017455251815,0.6571452603159259,0,0,0,0.3874790637764818,0,0,5.600996791970829
24,23,female,3,75,125,left,change,valid,clock,1,2.121453511159416,0,j,1,change,0.9121416305461025,0.7719982136857017,0,0,0,0.38739053987319494,0,0,6.655209022253075
24,23,female,4,105,155,left,change,valid,clock,1,1.673431475122925,0,j,1,change,0.6338981757016882,0.8640190595137247,0,0,0,0.38738989839566784,0,0,5.449182148193358
24,23,female,5,75,125,right,change,valid,clock,1,1.4733873414670597,0,j,1,change,3.006374041712661,0.9431646450436015,0,0,0,0.3874421788177642,0,0,7.5068849785848215
24,23,female,6,15,65,left,change,valid,clock,1,1.737362411083268,0,j,1,change,1.7434545234109464,1,0,0,0,0.3874123501109352,0,0,6.770878009572698
24,23,female,7,135,185,right,change,valid,clock,2,0.9532760579404567,1,f,0,same,2.491352882575484,1,0,0,0,0.38745500836830615,0,0,6.479313952585471
24,23,female,8,15,65,right,change,valid,clock,2,1.2813937511100448,1,f,0,same,1.401910063563264,1,0,0,0,0.38748098820906307,0,0,5.364048454648582
24,23,female,9,165,215,left,change,valid,clock,1,1.5214773099769445,0,j,1,change,0.924789964212323,1,0,0,0,0.3874088219845362,0,0,5.9726727354718605
24,23,female,10,45,355,left,change,valid,anti,2,1.249354513211074,1,f,0,same,1.7534750442782752,1,0,0,0,0.3874819504253537,0,0,5.923944496796139
24,23,female,11,15,325,left,change,valid,anti,1,1.273471824059925,0,j,1,change,1.2910229706694736,1,0,0,0,0.38742036858002393,0,0,5.9469873327425375
24,23,female,12,135,85,right,change,valid,anti,2,1.6734186455714735,1,j,1,change,1.515284806411728,1,0,0,0,0.3874319151755117,0,0,6.578035102935246
24,23,female,13,15,15,right,change,catch,clock,2,1.3533620800808421,1,f,0,same,1.5756003748792864,0,0,0,0,0.38743832995169214,0,0,7.733986956195622
24,23,female,14,45,75,right,same,catch,clock,2,2.4323741533298744,1,f,1,same,1.19834806700419,0,0,0,0,0.38752011834003497,0,0,8.014336061110043
24,23,female,15,165,55,left,change,catch,anti,1,2.000554878083676,0,j,1,change,0.5785530960592951,0,0,0,0,0.38753134419675916,0,0,7.531462549578464
24,23,female,16,165,115,left,change,valid,anti,1,2.6003363908293977,0,j,1,change,1.2662048455931654,1,0,0,0,0.3873690503760372,0,0,6.8976551429495885
24,23,female,17,105,105,left,same,valid,clock,2,1.4734309619407213,1,j,0,change,1.0947022934751658,1,0,0,0,0.3874386506904557,0,0,5.745407181084374
24,23,female,18,105,105,right,same,valid,anti,2,1.6253463176944933,1,f,1,same,0.8620810429911216,1,0,0,0,0.38743961290674633,0,0,5.819120649739489
24,23,female,19,15,325,right,change,valid,anti,2,3.0974125361399274,1,f,0,same,1.5622736787008762,1,0,0,0,0.3874255004011502,0,0,7.446465170014562
24,23,female,20,45,45,right,same,valid,anti,2,1.1774394268786637,1,f,1,same,0.8650183687095705,1,0,0,0,0.3873709748086185,0,0,5.5967662475040925
24,23,female,21,165,165,right,same,valid,anti,2,1.08129894072772,1,f,1,same,0.8323408606447629,1,0,0,0,0.3874380092129286,0,0,4.730699383732826
24,23,female,22,135,135,left,same,valid,clock,2,0.9294573548932021,1,f,1,same,1.2678435000043464,1,0,0,0,0.38738925691814075,0,0,5.418865277525583
24,23,female,23,105,105,left,same,valid,anti,1,1.2254909067351036,0,j,0,change,0.6439834858019822,1,0,0,0,0.3874460276829268,0,0,5.14843790593477
24,23,female,24,75,75,left,same,valid,clock,2,1.7693997245496575,1,j,0,change,1.1338090103217837,1,0,0,0,0.3874684793972847,0,0,5.927240087728933
24,23,female,25,165,115,right,change,valid,anti,2,1.8574447639721257,1,f,0,same,1.3434204609529843,1,0,0,0,0.3874646305312126,0,0,6.582221385450794
24,23,female,26,75,125,left,change,catch,anti,1,1.0574516919286907,0,j,1,change,0.6754511672006629,0,0,0,0,0.38739118135163153,0,0,6.439432972330906
24,23,female,27,135,135,right,same,valid,clock,2,1.2085834828512816,1,f,1,same,0.5813877853688609,1,0,0,0,0.3874678379197576,0,0,5.113204430557744
24,23,female,28,45,355,right,change,valid,anti,1,2.185472971023046,0,j,1,change,0.8819142459969953,1,0,0,0,0.3874222930135147,0,0,6.323003513371987
24,23,female,29,165,165,left,same,valid,clock,1,4.737449010553064,0,j,0,change,1.0992696136572704,1,0,0,0,0.38738476657636056,0,0,8.971903924623803
24,23,female,30,165,215,right,change,valid,clock,2,1.0574815206346102,1,j,1,change,1.0586384254038421,1,0,0,0,0.38747008309019293,0,0,5.231374859596144
24,23,female,31,135,85,left,change,valid,anti,2,1.5214388213234997,1,j,1,change,1.1509457624306378,1,0,0,0,0.38745564984583325,0,0,6.22085206180509
24,23,female,32,135,135,left,same,valid,anti,2,1.0894059340525928,1,j,0,change,2.1816000502913084,1,0,0,0,0.3874697623514294,0,0,6.795256401785991
24,23,female,33,45,45,left,same,valid,anti,1,0.7692422418094793,0,j,0,change,1.633564928112719,1,0,0,0,0.38742325522980536,0,0,5.799751235003896
24,23,female,34,45,95,left,change,valid,clock,2,8.425142135389251,1,j,1,change,0.9460844530858594,1,0,0,0,0.38742325522980536,0,0,12.419383591388396
24,23,female,35,135,325,left,same,catch,anti,2,1.3692745722792097,1,j,0,change,0.9568189384708603,0,0,0,0,0.3874020864695922,0,0,6.766522376981811
24,23,female,36,15,325,left,change,catch,anti,1,1.2881379253722116,0,j,1,change,1.0379318507075368,0,0,0,0,0.3874235759685689,0,0,7.328629271519276
24,23,female,37,45,45,right,same,valid,clock,2,1.4165812966957674,1,f,1,same,0.830693546286966,1,0,0,0,0.3874206893187875,0,0,4.991302847325642
24,23,female,38,75,325,right,same,catch,anti,2,1.0413951880209424,1,f,1,same,0.9138367349814871,0,0,0,0,0.387457253539651,0,0,6.43974857928788
24,23,female,39,135,115,right,change,catch,clock,3,1.1603119761939524,1,f,0,same,0.937595139140285,0,0,0,0,0.387437367734492,0,0,6.720247789949099
24,23,female,40,15,15,right,same,valid,clock,2,2.2884884928544125,1,j,0,change,1.106606833916885,1,0,0,0,0.38745564984492376,0,0,6.7721750771852385
24,23,female,41,165,165,left,same,valid,anti,3,1.4173411268575364,1,f,1,same,1.3454183427938915,1,0,0,0,0.38738925691905024,0,0,5.824264016766392
24,23,female,42,105,155,right,change,valid,clock,3,1.161376828932589,1,j,1,change,0.7761060516349971,1,0,0,0,0.38746174388234067,0,0,5.39625768409951
24,23,female,43,15,15,left,same,valid,clock,3,0.8733736138465247,1,f,1,same,0.802706522094013,1,0,0,0,0.38747617712760984,0,0,4.5338642415390495
24,23,female,44,45,95,right,change,valid,clock,3,0.9054551892650125,1,j,1,change,0.788873058648278,1,0,0,0,0.3874800259927724,0,0,4.640212880740364
24,23,female,45,45,45,left,same,valid,clock,3,0.7774820209879181,1,f,1,same,0.7064332500913224,0.9987358450795314,0,0,0,0.38739919982072024,0,0,4.4698999487454785
24,23,female,46,75,25,right,change,valid,anti,2,1.0254413205202582,1,f,0,same,0.5658665944793029,0.9960185366280967,0,0,0,0.3873921435679222,0,0,4.34290375078308
24,23,female,47,15,15,left,same,valid,anti,3,0.9534046741900966,1,f,1,same,0.6163354824966518,0.9934480769654896,0,0,0,0.3873696918526548,0,0,4.7408882924573845
24,23,female,48,105,185,right,same,catch,clock,2,0.8094372253272013,1,f,1,same,1.194736548376568,0,0,0,0,0.38745083876347053,0,0,6.345717592072106
24,23,female,49,135,135,right,same,valid,anti,2,1.1123682645657027,1,f,1,same,0.4433613808705559,0.990791864000971,0,0,0,0.38747874303771823,0,0,5.206627297050545
24,23,female,50,75,105,left,same,catch,clock,1,0.7693788765291174,0,j,0,change,0.9187613581616461,0,0,0,0,0.38741267084969877,0,0,6.205283722314562
24,23,female,51,75,25,left,change,valid,anti,2,0.7202779393937817,1,f,0,same,0.7035328093315911,0.9882228107051121,0,0,0,0.38747232826244726,0,0,4.672424034623873
24,23,female,52,75,75,right,same,valid,clock,3,0.8494307848923199,1,f,1,same,0.621447417121999,0.9858159594298577,0,0,0,0.3874056145959912,0,0,4.462519428750966
24,23,female,53,105,55,left,change,valid,anti,2,0.8493024893814436,1,f,0,same,1.7162484981408852,0.9835223003973923,0,0,0,0.387430632221367,0,0,5.383804038870949
24,23,female,54,135,185,left,change,valid,clock,2,0.8333976949152202,1,j,1,change,0.8048317372304155,0.9811400177215341,0,0,0,0.3874434617728184,0,0,4.744593787546364
24,23,female,55,105,55,right,change,valid,anti,3,1.201465968652883,1,j,1,change,0.6873188226836646,0.9788056270948027,0,0,0,0.3874386506904557,0,0,4.961288754064299
24,23,female,56,75,75,right,same,valid,anti,3,0.8254231667051499,1,f,1,same,0.8140908242412479,0.9766046015425345,0,0,0,0.38737129554738203,0,0,4.71920987926751
24,23,female,57,105,105,right,same,valid,clock,3,0.8095100330292553,1,f,1,same,0.7301724099224884,0.9745098248270905,0,0,0,0.3874248589227136,0,0,4.622783935606094
24,23,female,58,165,165,right,same,valid,clock,3,0.7294449743758378,1,f,1,same,0.5037417385710796,0.9723423214194962,0,0,0,0.38743576404158375,0,0,4.284093409395609
24,23,female,1,135,135,right,same,valid,anti,1,1.4884729690984386,0,j,0,change,1.6443164126521879,0.9702051216678166,0,0,0,0.3874732904787379,0,0,6.096951955255463
24,23,female,2,45,75,right,same,catch,clock,2,0.9613727876239864,1,f,1,same,1.3021073820591482,0,0,0,0,0.3874585364947052,0,0,7.187685106366189
24,23,female,3,75,75,left,same,valid,anti,1,1.8468135564735348,0,j,0,change,0.5324600471740268,0.9757810264235274,0,0,0,0.387407539029482,0,0,6.1167774605310115
24,23,female,4,75,325,right,same,catch,anti,2,0.8014562823427696,1,f,1,same,1.3715341769620863,0,0,0,0,0.3874274248337315,0,0,6.501349348034637
24,23,female,5,165,115,left,change,valid,anti,2,0.8483498952145965,1,f,0,same,0.8737033333100044,0.9814640422125559,0,0,0,0.3873995205594838,0,0,5.085633404559303
24,23,female,6,45,45,left,same,valid,anti,2,0.8333957704817294,1,f,1,same,0.8270085784788535,0.979452713708294,0,0,0,0.38743640551911085,0,0,4.502287188218361
24,23,female,7,165,165,right,same,valid,anti,3,0.8894092697355518,1,f,1,same,0.6172996232608057,0.977535398633673,0,0,0,0.3875056850947658,0,0,4.488506967408284
24,23,female,8,15,15,right,same,valid,anti,3,0.8654914584058133,1,f,1,same,0.41035030447710596,0.9757146716934333,0,0,0,0.3874989495798218,0,0,4.114064010479524
24,23,female,9,135,135,left,same,valid,clock,2,0.8894747004460442,1,f,1,same,0.7812067604036201,0.9739608402955413,0,0,0,0.3873995205603933,0,0,4.562223322712271
24,23,female,10,135,115,right,change,catch,clock,2,0.8494487462639881,1,f,0,same,1.3457836642610346,0,0,0,0,0.38741395380475296,0,0,6.6264288110660345
24,23,female,11,15,325,right,change,valid,anti,2,1.1920644736264876,1,j,1,change,0.7203369553299126,0.9721281380971111,0,0,0,0.38738412509792397,0,0,5.462144485120916
24,23,female,12,165,115,right,change,valid,anti,2,0.9853653310892696,1,f,0,same,0.6925439780980014,0.970309021739097,0,0,0,0.3873918228291586,0,0,4.840810930264524
24,23,female,13,105,155,left,change,valid,clock,1,0.9934043277926321,0,j,1,change,0.726899591442816,0.9685237273038594,0,0,0,0.3874428202952913,0,0,4.659722779059848
24,23,female,14,165,55,left,change,catch,anti,1,0.9534826137132768,0,f,0,same,0.9479453794692745,0,0,0,0,0.3874155574985707,0,0,6.3144295243891975
24,23,female,15,105,55,right,change,valid,anti,2,1.000533709325282,1,j,1,change,0.7776965952298269,0.9733414521503956,0,0,0,0.38747681860513694,0,0,5.137950389408616
24,23,female,16,105,155,right,change,valid,clock,1,0.9933953471063433,0,j,1,change,0.5973127863799164,0.971636176443919,0,0,0,0.38746014018852293,0,0,4.635922678861789
24,23,female,17,135,185,left,change,valid,clock,2,0.913487771193104,1,f,0,same,0.8858311079411578,0.9760638891680091,0,0,0,0.38745757427841454,0,0,4.722064454381325
24,23,female,18,75,25,right,change,valid,anti,2,0.9854323654935797,1,f,0,same,1.1788147547540575,0.9745183894052499,0,0,0,0.3873459571841522,0,0,5.081438462095321
24,23,female,19,75,125,left,change,valid,clock,2,1.0333741526883387,1,f,0,same,1.260726306545621,0.9729055847637206,0,0,0,0.3874081805060996,0,0,5.569797889666916
24,23,female,20,135,135,right,same,valid,clock,3,1.0734867063392812,1,f,1,same,0.7199934440996003,0.9713094284668329,0,0,0,0.3874360847803473,0,0,5.328134050846529
24,23,female,21,135,185,right,change,valid,clock,3,1.033469091365987,1,j,1,change,0.663867686273079,0.9697109411366178,0,0,0,0.3874578950171781,0,0,4.8631481409020125
24,23,female,22,45,355,right,change,valid,anti,2,0.9054997719549647,1,j,1,change,1.0985370462913124,0.9681675221959015,0,0,0,0.387390860612868,0,0,5.098379884289898
24,23,female,23,45,355,left,change,valid,anti,1,1.073471310878631,0,j,1,change,0.8932446640292255,0.9666987482344679,0,0,0,0.38742197227475117,0,0,5.267085915013013
24,23,female,24,45,45,right,same,valid,anti,2,0.8412901139963651,1,f,1,same,0.9917291091605875,0.9709197542519734,0,0,0,0.3874235759676594,0,0,4.849635095493795
24,23,female,25,15,325,left,change,catch,anti,2,1.2253388765548152,1,f,0,same,1.876576511273015,0,0,0,0,0.38746238535986777,0,0,7.718385259871866
24,23,female,26,165,215,left,change,valid,clock,2,0.8721570516663633,1,f,0,same,1.0716386095073176,0.9694140719221662,0,0,0,0.38742325522980536,0,0,4.985187641806988
24,23,female,27,45,95,left,change,valid,clock,2,2.6814169084500463,1,j,1,change,0.8529771935482131,0.9679716443205088,0,0,0,0.38745564984583325,0,0,6.855557216270427
24,23,female,28,75,125,right,change,valid,clock,3,1.073478687871102,1,j,1,change,0.611793500677777,0.9665951647504039,0,0,0,0.38745244245728827,0,0,4.6858254629387375
24,23,female,29,75,25,left,change,valid,anti,2,0.8734829857703517,1,j,1,change,0.7003590991344026,0.9652677042617213,0,0,0,0.38748227116411726,0,0,4.820878298236494
24,23,female,30,135,85,right,change,valid,anti,2,1.1534414308544,1,j,1,change,0.930381403309184,0.9639740701543116,0,0,0,0.38664835034433054,0,0,4.926966497551803
24,23,female,31,45,45,left,same,valid,clock,3,0.8974716803695628,1,f,1,same,0.6484472073598226,0.9626112991851925,0,0,0,0.3874068975519549,0,0,4.388151332253074
24,23,female,32,15,15,left,same,valid,anti,3,0.7613937639407595,1,f,1,same,0.4147665566961223,0.9612532176195544,0,0,0,0.3874466691595444,0,0,4.187603638717519
24,23,female,33,15,15,right,same,valid,clock,3,0.7374727452224761,1,f,1,same,0.7266025873350372,0.9598849103050282,0,0,0,0.38744442398910905,0,0,4.229731714843183
24,23,female,34,15,65,left,change,valid,clock,3,0.8493990317538191,1,j,1,change,0.6476626803114414,0.9585476248813776,0,0,0,0.38747168678401067,0,0,4.328916974201093
24,23,female,35,105,105,left,same,valid,anti,2,0.8094737895471553,1,f,1,same,3.0486108482837153,0.957273435525962,0,0,0,0.3874473106370715,0,0,6.6942394032721495
24,23,female,36,15,15,left,same,valid,clock,3,0.8174845612393256,1,f,1,same,0.5175905974783745,0.9560477653730748,0,0,0,0.3874299907438399,0,0,4.672592422482012
24,23,female,37,15,65,right,change,valid,clock,2,1.6814794525116668,1,f,0,same,0.9487956579660022,0.9548575135135172,0,0,0,0.38743319813056587,0,0,5.519225723763157
24,23,female,38,135,135,left,same,valid,anti,2,0.8014319061958304,1,f,1,same,0.6313483024259767,0.953610009774188,0,0,0,0.38743191517642117,0,0,4.203270765750858
24,23,female,39,165,165,left,same,valid,clock,3,1.017461660489971,1,f,1,same,0.5158749657612134,0.9523738038233873,0,0,0,0.3874129915884623,0,0,4.276587159801238
24,23,female,40,75,105,left,same,catch,clock,2,1.0173712121550125,1,f,1,same,2.2515364991104434,0,0,0,0,0.3874498765480894,0,0,7.952561451945257
24,23,female,41,75,125,left,change,catch,anti,1,1.0720010443255887,0,j,1,change,1.583229467426463,0,0,0,0,0.3874498765480894,0,0,7.406693882420768
24,23,female,42,165,165,left,same,valid,anti,2,0.9682645017228424,1,f,1,same,0.5722374288043284,0.9511361983428226,0,0,0,0.3874049731193736,0,0,4.488920078953015
24,23,female,43,105,55,left,change,valid,anti,2,1.3052541502001986,1,f,0,same,2.138209225601713,0.9498845768325315,0,0,0,0.38747489417164616,0,0,6.377463995469043
24,23,female,44,105,105,right,same,valid,clock,3,0.8494237286395219,1,f,1,same,0.5772387085517039,0.9486554438204962,0,0,0,0.38749798736353114,0,0,4.676504473343812
24,23,female,45,15,325,left,change,valid,anti,1,0.9374270720209097,0,j,1,change,1.4798896786896876,0.947482439946053,0,0,0,0.38747810156019113,0,0,5.218994984286837
24,23,female,46,105,185,right,same,catch,clock,2,0.8973430641199229,1,f,1,same,1.6091461228133994,0,0,0,0,0.387457253539651,0,0,7.358887767728447
24,23,female,47,15,15,right,change,catch,clock,1,1.0642869560033432,0,j,1,change,0.8298596254662698,0,0,0,0,0.3873988790819567,0,0,7.094753290940389
24,23,female,48,105,105,left,same,valid,clock,1,0.7845183882745914,0,j,0,change,0.8622276206124297,0.9508434764793157,0,0,0,0.38739053987410443,0,0,4.623115900240009
24,23,female,49,105,105,right,same,valid,anti,3,0.8974687937206909,1,f,1,same,0.5111148815740307,0.9539663329980714,0,0,0,0.38744570694325375,0,0,4.436424442603311
24,23,female,50,75,75,right,same,valid,clock,2,0.905428888685492,1,f,1,same,0.7378245956606406,0.9528376851580879,0,0,0,0.3874627060986313,0,0,4.420485329087569
24,23,female,51,135,325,left,same,catch,anti,1,0.8814466088606423,0,j,0,change,0.7866339812471779,0,0,0,0,0.38743448108652956,0,0,6.064631108711183
24,23,female,52,135,85,left,change,valid,anti,1,0.8004417855909196,0,j,1,change,1.19699936044708,0.9517103160453508,0,0,0,0.38742389670733246,0,0,5.1590088145430855
24,23,female,53,165,215,right,change,valid,clock,1,5.121410211424518,0,f,0,same,0.4569097075445825,0.9546658015683346,0,0,0,0.38746623422503035,0,0,8.761243658193052
24,23,female,54,75,75,left,same,valid,clock,3,5.017405531203622,1,f,1,same,0.5534706822299995,0.9574914275610673,0,0,0,0.38739919982162974,0,0,8.992553728556231
24,23,female,55,45,95,right,change,valid,clock,3,1.1374856389211345,1,j,1,change,0.6186271610577023,0.9564552845287801,0,0,0,0.3874777808214276,0,0,5.03780355519757
24,23,female,56,45,45,right,same,valid,clock,3,1.0414869193100458,1,f,1,same,0.8901995700816769,0.9554494631806204,0,0,0,0.38742710409496794,0,0,5.101836165349596
24,23,female,57,165,165,right,same,valid,clock,3,0.841468765495847,1,f,1,same,0.463645542597078,0.9544652903859749,0,0,0,0.3873722577636727,0,0,4.3194173331075945
24,23,female,58,75,75,right,same,valid,anti,3,0.921467110483718,1,f,1,same,0.4339595651044874,0.9534271954418603,0,0,0,0.38750343992342096,0,0,4.237055784812583
24,23,female,1,135,135,right,same,valid,clock,3,1.3360883725135864,1,f,1,same,0.4666309791318781,0.9523939391969781,0,0,0,0.38741106715497153,0,0,4.905140865263093
24,23,female,2,15,15,right,same,valid,anti,2,0.9374017336576799,1,f,1,same,0.4339582821485237,0.9513566663112438,0,0,0,0.3874646305312126,0,0,4.45760057886946
24,23,female,3,75,105,left,same,catch,clock,1,0.7214864831057639,0,j,0,change,0.5774417361972155,0,0,0,0,0.3874492350705623,0,0,5.721341829917037
24,23,female,4,105,185,right,same,catch,clock,1,0.9044987462320933,0,j,0,change,0.7727328419186961,0,0,0,0,0.38744314103314537,0,0,6.2522408414643
24,23,female,5,75,75,right,same,valid,anti,2,0.7362042233598913,1,f,1,same,0.610188203099824,0.9503067326528127,0,0,0,0.38745019728594343,0,0,4.762701415933407
24,23,female,6,105,105,left,same,valid,clock,1,0.8414960282916581,0,j,0,change,0.3831972011048492,0.9492511184296806,0,0,0,0.3874813089478266,0,0,4.155391843356483
24,23,female,7,135,325,left,same,catch,anti,2,1.265532897855337,1,j,0,change,1.03837414948066,0,0,0,0,0.3873815591878156,0,0,6.657463174376971
24,23,female,8,75,25,right,change,valid,anti,2,0.9123395263713974,1,f,0,same,1.598053051477109,0.952099101997046,0,0,0,0.38739727538813895,0,0,5.653928633056239
24,23,female,9,135,135,left,same,valid,anti,2,0.8174662791288938,1,j,0,change,0.696756881931833,0.9510988339958882,0,0,0,0.38738989839657734,0,0,4.445404486878942
24,23,female,10,105,105,right,same,valid,anti,2,0.6574477789154116,1,f,1,same,0.7457827661919509,0.950083749749119,0,0,0,0.3874354433028202,0,0,4.382183025092672
24,23,female,11,15,325,left,change,catch,anti,1,0.7694443072396098,0,j,1,change,0.32155249114657636,0,0,0,0,0.3873703333310914,0,0,5.643704763804635
24,23,female,12,75,125,left,change,valid,clock,3,0.912369996554844,1,j,1,change,0.63155870706305,0.949072597373238,0,0,0,0.38743512256405666,0,0,4.884609093201107
24,23,female,13,45,45,right,same,valid,clock,3,0.8172850617193035,1,f,1,same,0.7229759939855285,0.948106743603766,0,0,0,0.3874030486867923,0,0,4.384159417436422
24,23,female,14,135,185,left,change,valid,clock,3,0.865476383683017,1,f,0,same,0.6600178587350456,0.9471785369007384,0,0,0,0.387444103249436,0,0,4.255713159463085
24,23,female,15,45,45,left,same,valid,clock,3,0.7775124911713647,1,f,1,same,0.6608411951756352,0.9462803077944102,0,0,0,0.3873988790819567,0,0,4.315033475506425
24,23,female,16,15,15,right,same,valid,clock,3,0.7135039364275144,1,f,1,same,0.4115784132536646,0.9454050172745109,0,0,0,0.3873716162861456,0,0,4.112627421497564
24,23,female,17,105,105,right,same,valid,clock,2,0.6735495069915487,1,f,1,same,1.0186390925400701,0.9445461327640252,0,0,0,0.38744378251158196,0,0,4.376444366896976
24,23,female,18,45,95,left,change,valid,clock,2,0.6494979475928631,1,f,0,same,1.074894108092849,0.9436384999828794,0,0,0,0.3874373677354015,0,0,5.023188451351416
24,23,female,19,135,135,right,same,valid,anti,3,0.8495112903256086,1,f,1,same,0.688717243750034,0.9427343945836528,0,0,0,0.38737546515130816,0,0,4.710606382316655
24,23,female,20,75,75,left,same,valid,clock,3,0.7134808432347199,1,f,1,same,0.5383353400884516,0.9418269724943724,0,0,0,0.38750279844589386,0,0,3.9425441384664737
24,23,female,21,15,65,right,change,valid,clock,2,0.7054347902785594,1,f,0,same,0.6237044558956768,0.9409095248151476,0,0,0,0.38745949871099583,0,0,4.138166888084015
24,23,female,22,135,135,left,same,valid,clock,3,0.8095026560376937,1,j,0,change,0.7056593074230477,0.9399751625579511,0,0,0,0.38742453818395006,0,0,4.4110572127410705
24,23,female,23,135,85,right,change,valid,anti,3,0.7214726913380218,1,j,1,change,0.628982533207818,0.93904596081687,0,0,0,0.38740112425330153,0,0,4.442468444115548
24,23,female,24,15,15,left,same,valid,clock,3,1.129423549025887,1,f,1,same,0.6610378080458759,0.938157384423731,0,0,0,0.3873809177102885,0,0,4.538808109045931
24,23,female,25,165,165,left,same,valid,clock,3,1.0094428703296217,1,f,1,same,0.7009931996963132,0.9373023285409205,0,0,0,0.3874129915884623,0,0,4.813993961130109
24,23,female,26,135,115,right,change,catch,clock,1,0.6654617579952173,0,j,1,change,0.7386748741582778,0,0,0,0,0.387440575123037,0,0,6.049243986629335
24,23,female,27,45,355,left,change,valid,anti,2,0.7601858617063044,1,f,0,same,0.8585933295316863,0.9364743034825129,0,0,0,0.3874806674702995,0,0,4.969889364366281
24,23,female,28,165,115,right,change,valid,anti,2,1.177368222869518,1,f,0,same,0.6790325363836018,0.9356673252519464,0,0,0,0.38743383960900246,0,0,4.6957949863399335
24,23,female,29,105,155,right,change,valid,clock,2,0.6894530185054464,1,j,1,change,1.2125115706512588,0.934875819997973,0,0,0,0.38746815865852113,0,0,5.134986121633119
24,23,female,30,15,325,right,change,valid,anti,3,0.7134195821290632,1,j,1,change,0.9039839604947701,0.9340404052496953,0,0,0,0.3874309529601305,0,0,4.729203778815645
24,23,female,31,105,55,right,change,valid,anti,2,1.3454391908144316,1,j,1,change,1.3378896414851624,0.9332096444493625,0,0,0,0.3874068975510454,0,0,5.713326567883087
24,23,female,32,15,15,right,change,catch,clock,3,0.8254375999495096,1,j,1,change,0.7875945938840232,0,0,0,0,0.38747072456772,0,0,6.439422708690472
24,23,female,33,45,45,left,same,valid,anti,2,1.008347868146302,1,f,1,same,0.9957065907328797,0.9323776750563416,0,0,0,0.3874043316418465,0,0,5.085596519599676
24,23,female,34,165,215,right,change,valid,clock,3,1.065499669318342,1,j,1,change,0.5364699233632564,0.931538757091394,0,0,0,0.3874720075236837,0,0,5.21428878421375
24,23,female,35,165,165,left,same,valid,anti,3,0.9054519818764675,1,f,1,same,0.5994123424134159,0.930687193845438,0,0,0,0.38737867253985314,0,0,4.707719091848048
24,23,female,36,165,165,right,same,valid,clock,4,1.2334352854995814,1,f,1,same,0.7300033805868225,0.9298162159327105,0,0,0,0.3874206893187875,0,0,4.746649081628675
24,23,female,37,75,25,left,change,valid,anti,1,2.0333937177538246,0,j,1,change,0.8220608621068095,0.9289571589989857,0,0,0,0.3873132418284513,0,0,5.698386876396398
24,23,female,38,165,55,left,change,catch,anti,2,1.1694007509131552,1,f,0,same,0.9630579491586104,0,0,0,0,0.38742517966238665,0,0,6.907278909950037
24,23,female,39,165,165,right,same,valid,anti,4,0.9363003166972703,1,f,1,same,0.6847404036561784,0.93132711486774,0,0,0,0.3874149160210436,0,0,4.899768811489594
24,23,female,40,165,215,left,change,valid,clock,4,2.0094258711751536,1,j,1,change,0.7104809734555602,0.9304976498890487,0,0,0,0.38745308393572486,0,0,5.359208827244402
24,23,female,41,15,65,left,change,valid,clock,3,5.433259071614884,1,j,1,change,2.4415264343278977,0.9296496091499447,0,0,0,0.38740978420082683,0,0,11.207491688054688
24,23,female,42,105,55,left,change,valid,anti,3,4.041484032662083,1,f,0,same,1.0717656220631397,0.9288231734739749,0,0,0,0.38744025438427343,0,0,8.149825742622852
24,23,female,43,15,15,left,same,valid,anti,3,0.9454125053480311,1,f,1,same,0.48088525185357867,0.9280302488144139,0,0,0,0.3874498765480894,0,0,4.381561754082213
24,23,female,44,105,105,left,same,valid,anti,3,0.9054118895301144,1,j,0,change,0.728478267702485,0.9272652126221126,0,0,0,0.38747489417164616,0,0,4.460918942254466
24,23,female,45,75,125,right,change,valid,clock,3,0.9054356241995265,1,j,1,change,0.76623242912774,0.9265228887762469,0,0,0,0.3874142745435165,0,0,4.7179913926538575
24,23,female,46,105,155,left,change,valid,clock,1,0.9854583453343366,0,j,1,change,0.6837599052150836,0.9257984713644931,0,0,0,0.38744891433088924,0,0,4.573516214307347
24,23,female,47,15,325,left,change,valid,anti,2,0.7134029037124492,1,j,1,change,0.6918159010738236,0.9279327036711049,0,0,0,0.38745436689077906,0,0,4.233757307231826
24,23,female,48,75,75,right,same,valid,clock,4,1.0094069475871947,1,f,1,same,0.7322241758774908,0.92719424468491,0,0,0,0.3874229344901323,0,0,4.627839740946001
24,23,female,49,75,125,left,change,catch,anti,1,0.7110660009839194,0,j,1,change,0.9974106758536436,0,0,0,0,0.3874857992905163,0,0,6.330219173635669
24,23,female,50,45,45,right,same,valid,anti,3,0.8162968655478835,1,f,1,same,0.4968176298552862,0.9264771499551432,0,0,0,0.38737129554738203,0,0,4.682866006244694
24,23,female,51,45,75,right,same,catch,clock,1,0.6333975024708707,0,j,0,change,0.7774630973999592,0,0,0,0,0.3866685568873436,0,0,5.737337714197565
24,23,female,52,75,325,right,same,catch,anti,1,1.7684984485858877,0,j,0,change,2.3281455974429264,0,0,0,0,0.38752460868272465,0,0,8.794489836109278
24,23,female,53,165,115,left,change,valid,anti,2,1.0721671870123828,1,j,1,change,0.9988581699535644,0.9257769294116995,0,0,0,0.3874784222989547,0,0,5.482423194288458
24,23,female,54,135,85,left,change,valid,anti,1,0.841462029980903,0,j,1,change,0.3945199214058448,0.9250893690973623,0,0,0,0.38750408140094805,0,0,4.88628687774235
24,23,female,55,45,355,right,change,valid,anti,2,1.2574454695968598,1,j,1,change,0.7478249099849563,0.9271271819889424,0,0,0,0.38737193702490913,0,0,4.730258367913848
24,23,female,56,135,185,right,change,valid,clock,2,0.7294302203927145,1,j,1,change,0.5458714183905613,0.9264337344196244,0,0,0,0.38739535095555766,0,0,4.146252712647765
24,23,female,57,75,75,left,same,valid,anti,2,0.9695044778345618,1,f,1,same,0.8474524681168987,0.9257562145978064,0,0,0,0.38739406800050347,0,0,4.819153685833953
24,23,female,58,45,95,right,change,valid,clock,3,0.7374615193657519,1,j,1,change,0.5854627715289098,0.9250906708481812,0,0,0,0.3874219722738417,0,0,4.349541119031528
24,23,female,1,75,125,right,change,valid,clock,3,1.4242328409563925,1,j,1,change,0.5504977545078873,0.9244333547902819,0,0,0,0.3874235759685689,0,0,5.001541791300042
24,23,female,2,135,325,left,same,catch,anti,1,1.7535504178904375,0,j,0,change,1.1200214125201455,0,0,0,0,0.3874200478412604,0,0,7.4063943124037905
24,23,female,3,105,185,right,same,catch,clock,1,0.8162266237568474,0,j,0,change,0.8171994244667076,0,0,0,0,0.387470403829866,0,0,6.143319556533243
24,23,female,4,15,325,left,change,valid,anti,2,0.8084961777558419,1,j,1,change,0.5359047816373277,0.9237351233529423,0,0,0,0.3874206893187875,0,0,4.6249527712152485
24,23,female,5,105,105,left,same,valid,anti,3,0.8653689361926808,1,f,1,same,0.6786293677405411,0.9230372840048193,0,0,0,0.38741042567835393,0,0,4.238224556915156
24,23,female,6,135,185,right,change,valid,clock,3,0.7454905731665349,1,j,1,change,0.5297838028200204,0.9223356930016173,0,0,0,0.38751723169025354,0,0,4.121945845181472
24,23,female,7,165,165,right,same,valid,clock,4,1.0014535881364282,1,f,1,same,0.5016312774196194,0.9216262445239024,0,0,0,0.38747008309019293,0,0,4.4335124552490015
24,23,female,8,15,65,right,change,valid,clock,2,0.9374966723353282,1,f,0,same,1.013610870735647,0.9209048240013135,0,0,0,0.38748804446186114,0,0,5.097992752586833
24,23,female,9,45,355,left,change,valid,anti,2,2.913470451298963,1,j,1,change,1.5708473469449018,0.9201672626078539,0,0,0,0.38744314103314537,0,0,7.923728318861322
24,23,female,10,105,155,left,change,valid,clock,3,0.8095020145601666,1,j,1,change,0.6429205574950174,0.9194163508368602,0,0,0,0.3874142745435165,0,0,4.517647047503488
24,23,female,11,15,325,right,change,valid,anti,3,0.8014607726854592,1,j,1,change,0.563615649743042,0.918693260419575,0,0,0,0.38743704699663795,0,0,4.1681457000804585
24,23,female,12,75,105,left,same,catch,clock,1,0.8494532366075873,0,j,0,change,0.5849101386165785,0,0,0,0,0.3874261418777678,0,0,5.909026294805699
24,23,female,13,45,45,right,same,valid,clock,3,0.8004533321873168,1,f,1,same,0.5168455212997287,0.9179976691409419,0,0,0,0.3874534046735789,0,0,4.4161175084236675
24,23,female,14,75,25,left,change,valid,anti,3,0.7294478610247097,1,f,0,same,0.6508482578428811,0.9173252585196852,0,0,0,0.3874360847803473,0,0,4.0156770699359186
24,23,female,15,165,115,right,change,valid,anti,3,1.3454930749294363,1,j,1,change,0.6443321288525112,0.9166720254374281,0,0,0,0.38745083876438,0,0,4.789476368287978
24,23,female,16,135,185,left,change,valid,clock,2,0.80943530089462,1,f,0,same,0.8241607388799821,0.9160342314058296,0,0,0,0.3874210100584605,0,0,4.607027963930705
24,23,female,17,135,135,right,same,valid,clock,4,1.041455807649072,1,f,1,same,0.38690301693350193,0.9154083572499766,0,0,0,0.387440575123037,0,0,4.2672472466183535
24,23,female,18,135,135,right,same,valid,anti,4,0.9934957383438814,1,f,1,same,0.5194640326744775,0.9147910622948556,0,0,0,0.38739470947803056,0,0,4.7756704883759085
24,23,female,19,105,105,right,same,valid,anti,4,0.83323732552617,1,f,1,same,0.5985951000093337,0.9141366193357394,0,0,0,0.3874418580780912,0,0,4.304875357704077
24,23,female,20,15,15,right,same,valid,anti,4,0.8814831730815058,1,f,1,same,0.4378847662546832,0.9134839571720912,0,0,0,0.3874036901643194,0,0,4.174137421170599
24,23,female,21,45,45,left,same,valid,anti,4,1.793480150439791,1,f,1,same,0.6468175336349304,0.9128293932809712,0,0,0,0.38751274134756386,0,0,5.239605337349531
24,23,female,22,75,75,left,same,valid,clock,4,0.8812984275455165,1,f,1,same,0.7367696858236741,0.912169287461444,0,0,0,0.3874633475761584,0,0,4.468817134635174
24,23,female,23,15,15,left,same,valid,clock,4,0.793466679409903,1,f,1,same,0.5740008505990772,0.9115000025703397,0,0,0,0.3874094634620633,0,0,4.174080650406722
24,23,female,24,75,25,right,change,valid,anti,2,2.001274615899092,1,f,0,same,1.464258474399685,0.91081786627944,0,0,0,0.38748227116411726,0,0,6.495611652055231
24,23,female,25,45,95,left,change,valid,clock,3,1.14514359795794,1,j,1,change,0.9769715972979611,0.9101191332226284,0,0,0,0.3874627060986313,0,0,5.020969259753656
24,23,female,26,165,165,right,same,valid,anti,4,0.7294392010780939,1,f,1,same,0.5925536644081149,0.9094053636943682,0,0,0,0.3874348018252931,0,0,4.308538515274449
24,23,female,27,75,125,left,change,valid,clock,3,0.8894695686258274,1,j,1,change,1.1142237383901374,0.9087178321841887,0,0,0,0.3874267833552949,0,0,4.7696710695545335
24,23,female,28,15,65,left,change,valid,clock,3,1.113470964480257,1,f,0,same,0.6175558935428853,0.9080558046076588,0,0,0,0.38740112425330153,0,0,5.169555026265698
24,23,female,29,75,125,left,change,catch,anti,1,0.7453077520640363,0,j,1,change,0.5886938939675019,0,0,0,0,0.3874870822455705,0,0,6.0024113141244015
24,23,female,30,45,45,left,same,valid,clock,2,0.7522113334971436,1,f,1,same,0.5553274390103979,0.9074153932101381,0,0,0,0.3874694416135753,0,0,4.5743905482131595
24,23,female,31,165,215,left,change,valid,clock,2,1.1534420723319272,1,j,1,change,0.7908218674565433,0.9067929819007001,0,0,0,0.3874566120621239,0,0,4.8897258389088165
24,23,female,32,75,75,left,same,valid,anti,2,0.9613724668852228,1,f,1,same,0.6677521536003042,0.9061851834609846,0,0,0,0.38743768847416504,0,0,4.838198192188429
24,23,female,33,165,165,left,same,valid,anti,2,0.8894525694704498,1,f,1,same,1.378075002838159,0.9055888010913755,0,0,0,0.3874399336455099,0,0,5.080564128190417
24,23,female,34,45,45,right,same,valid,anti,1,0.9210703566159282,0,j,0,change,2.702545575376462,0.9050007935772713,0,0,0,0.3874408958618005,0,0,6.889478228572443
24,23,female,35,105,155,right,change,valid,clock,2,0.7615108335940022,1,f,0,same,1.1202879464444777,0.9067494191791465,0,0,0,0.3874216515359876,0,0,4.912931930892228
24,23,female,36,75,325,right,same,catch,anti,1,0.7374618401036059,0,j,0,change,0.8520861812257863,0,0,0,0,0.3873921435679222,0,0,6.174034464022952
24,23,female,37,45,95,right,change,valid,clock,2,0.7763613597016956,1,j,1,change,0.8065752732218243,0.9061589618197434,0,0,0,0.38740721829071845,0,0,4.570754332699835
24,23,female,38,135,85,left,change,valid,anti,2,0.7774948505393695,1,f,0,same,0.9384399650780324,0.905579411916797,0,0,0,0.38744634842078085,0,0,4.670321271202738
24,23,female,39,105,55,right,change,valid,anti,3,0.817447997018462,1,j,1,change,0.57396941819934,0.9050078901573706,0,0,0,0.3874501972868529,0,0,4.4051437519119645
24,23,female,40,15,15,left,same,valid,anti,3,0.7294077686783567,1,f,1,same,0.6051474724827131,0.9044416326114002,0,0,0,0.3873921435670127,0,0,3.988432876751176
24,23,female,41,105,105,right,same,valid,clock,4,0.7694670796918217,1,f,1,same,0.5182904494895411,0.9038385380151523,0,0,0,0.38744314103314537,0,0,4.017393022391843
24,23,female,42,135,135,left,same,valid,anti,4,0.6894655273172248,1,f,1,same,0.5331756153855167,0.9032346966426559,0,0,0,0.38750600583443884,0,0,3.8787203292577033
24,23,female,43,135,135,left,same,valid,clock,1,0.7134394679333127,0,j,0,change,0.8995863111258586,0.9026269571284401,0,0,0,0.38741587823733425,0,0,4.328758529245533
24,23,female,44,15,15,right,same,valid,clock,4,0.7215445368237852,1,f,1,same,0.4450462216645974,0.9042258152069362,0,0,0,0.38744506546572666,0,0,4.246496089232096
24,23,female,45,45,75,right,same,catch,clock,1,0.6895178077375022,0,j,0,change,0.5821123342657302,0,0,0,0,0.38744025438427343,0,0,5.628192232861693
24,23,female,46,165,215,right,change,valid,clock,3,0.8242938454723117,1,j,1,change,0.8109353961544912,0.9036375875827916,0,0,0,0.3874745734337921,0,0,4.825057845238007
24,23,female,47,105,55,left,change,valid,anti,2,0.641398972737079,1,f,0,same,0.7979243069312361,0.9030475303860142,0,0,0,0.3874421788168547,0,0,4.474960244428985
24,23,female,48,15,15,right,change,catch,clock,1,0.6414451591217585,0,j,1,change,0.4584053124608545,0,0,0,0,0.3874771393439005,0,0,5.518959510578497
24,23,female,49,135,85,right,change,valid,anti,3,0.7197455130253729,1,j,1,change,0.6098155046402098,0.9024526428689705,0,0,0,0.3874248589236231,0,0,4.608992488939293
24,23,female,50,105,105,left,same,valid,clock,2,0.7134442790138564,1,f,1,same,0.7631571857355084,0.901849920679513,0,0,0,0.3874501972868529,0,0,4.365392029385475
24,23,female,51,45,355,right,change,valid,anti,4,0.785414532417235,1,j,1,change,0.5699098274999415,0.9012363271795276,0,0,0,0.38743961290674633,0,0,4.356294915456601
24,23,female,52,75,75,right,same,valid,anti,4,0.625503158956235,1,f,1,same,0.6419018911401508,0.9006087648964246,0,0,0,0.38742902852754924,0,0,3.9869138579042556
24,23,female,53,135,115,right,change,catch,clock,1,0.7694734944689117,0,j,1,change,0.48596318816908024,0,0,0,0,0.3873857287917417,0,0,5.86210894726446
24,23,female,54,15,325,left,change,catch,anti,1,0.7923954118959955,0,j,1,change,0.40415844239032594,0,0,0,0,0.3874518009797612,0,0,5.971245127176189
24,23,female,55,165,55,left,change,catch,anti,1,0.7437172084692065,0,j,1,change,0.6208306364542295,0,0,0,0,0.3873498060484053,0,0,6.1275562078662915
24,23,female,56,165,115,left,change,valid,anti,2,1.7205916219181745,1,f,0,same,0.5461042747419924,0.8999631154385619,0,0,0,0.38736744668221945,0,0,5.47175510183115
24,23,female,57,75,75,right,same,valid,clock,3,0.7695001157862862,1,f,1,same,0.4317878428455515,0.8993073915494408,0,0,0,0.38738797396399605,0,0,4.146434250796119
24,23,female,58,165,165,left,same,valid,clock,1,0.7054569212541537,0,j,0,change,0.6277733480183088,0.8986776224920141,0,0,0,0.3873764273675988,0,0,3.995329081192722
24,23,female,1,45,45,left,same,valid,anti,1,0.8640635293713785,0,j,0,change,0.2962975198552158,0.9004735660647165,0,0,0,0.3874777808214276,0,0,4.185509535243
24,23,female,2,75,75,left,same,valid,anti,1,1.0575042930877316,0,j,0,change,0.3610335101457167,0.9021249190793393,0,0,0,0.3874408958618005,0,0,4.311374808277833
24,23,female,3,135,85,right,change,valid,anti,2,0.9454715212832525,1,j,1,change,0.5617136687960738,0.9036360558554417,0,0,0,0.38741844414744264,0,0,4.724706058947959
24,23,female,4,135,185,right,change,valid,clock,2,0.7614171778714081,1,j,1,change,0.5309734229431342,0.9030862771744051,0,0,0,0.38747938451524533,0,0,3.9484925598226255
24,23,female,5,105,155,right,change,valid,clock,2,0.7454402171779293,1,f,0,same,0.6957914582135345,0.9025319587843467,0,0,0,0.3873921435679222,0,0,4.104578481892531
24,23,female,6,165,165,left,same,valid,clock,2,0.7535186647510272,1,f,1,same,0.7731786688191278,0.9019704731991229,0,0,0,0.38742582113900426,0,0,4.392590998401829
24,23,female,7,15,325,left,change,valid,anti,2,0.641468573052407,1,j,1,change,0.7650540348613504,0.901399164869886,0,0,0,0.3874309529601305,0,0,4.399509013081115
24,23,female,8,75,125,right,change,valid,clock,3,0.8733748968024884,1,j,1,change,0.6351134549267954,0.9008153268792882,0,0,0,0.38741459528228006,0,0,4.359104266402937
24,23,female,9,135,185,left,change,valid,clock,3,0.6734593793962631,1,j,1,change,0.5518871948888773,0.9002161774161968,0,0,0,0.3873584659968401,0,0,3.877946065850665
24,23,female,10,165,165,left,same,valid,anti,4,1.4254894954838164,1,f,1,same,0.7584631737354357,0.8995980005901357,0,0,0,0.3873437120118979,0,0,4.967733358307669
24,23,female,11,15,325,right,change,valid,anti,3,0.6974811100899387,1,j,1,change,0.627310521963409,0.8989967862382677,0,0,0,0.387407539029482,0,0,4.149860703148988
24,23,female,12,75,125,left,change,catch,anti,1,0.6335033462682986,0,j,1,change,0.5923394109049696,0,0,0,0,0.387457253539651,0,0,5.846303261078901
24,23,female,13,105,105,right,same,valid,clock,4,1.36048857496462,1,f,1,same,0.5525450301202,0.8984181105732794,0,0,0,0.3874466691595444,0,0,5.131689889223708
24,23,female,14,45,45,right,same,valid,clock,3,0.977491514855501,1,f,1,same,0.4296619862325315,0.8978589872934601,0,0,0,0.38742902852754924,0,0,4.509984598123992
24,23,female,15,15,15,right,same,valid,anti,3,0.7213469617381634,1,f,1,same,0.4221714528375742,0.8973166325696051,0,0,0,0.3874492350696528,0,0,3.936399745718518
24,23,female,16,45,355,left,change,valid,anti,2,0.9613974845096891,1,j,1,change,1.7935135072721096,0.8967884366253067,0,0,0,0.38738540805297816,0,0,5.7398901533842945
24,23,female,17,15,15,right,change,catch,clock,1,0.7374348980465584,0,j,1,change,0.9158997267950326,0,0,0,0,0.38744955580841633,0,0,6.190147417956723
24,23,female,18,15,15,left,same,valid,anti,3,0.7924476923162729,1,f,1,same,0.8152547852623684,0.8962719380516038,0,0,0,0.3874149160210436,0,0,4.627159453999411
24,23,female,19,75,25,right,change,valid,anti,3,0.873475288039117,1,f,0,same,0.7118351325707408,0.8957648004468974,0,0,0,0.3875011947520761,0,0,4.584307791194078
24,23,female,20,135,135,right,same,valid,anti,4,0.6654851719258659,1,f,1,same,0.45122717863341677,0.8952647910223546,0,0,0,0.3874447447278726,0,0,3.9566184767345476
24,23,female,21,15,15,right,same,valid,clock,4,1.0013454991685649,1,f,1,same,0.4540708486292715,0.8947697608544609,0,0,0,0.3874222930126052,0,0,4.3436440158802725
24,23,female,22,165,115,left,change,valid,anti,1,0.6175004057349724,0,j,1,change,0.8917403991663377,0.894243356236512,0,0,0,0.38748291264164436,0,0,4.670701667392677
24,23,female,23,45,75,right,same,catch,clock,1,0.6494681188869436,0,j,0,change,0.6283830724341897,0,0,0,0,0.38734948531055124,0,0,5.830850708287471
24,23,female,24,105,55,right,change,valid,anti,3,0.9839470242177413,1,j,1,change,0.604623385321247,0.895611263698405,0,0,0,0.3874578950171781,0,0,4.721149386651632
24,23,female,25,75,75,right,same,valid,clock,2,0.6334719138676519,1,f,1,same,0.7999119251317097,0.8951240321654876,0,0,0,0.3874745734337921,0,0,4.3284082825011865
24,23,female,26,165,215,right,change,valid,clock,2,0.6974583376368173,1,j,1,change,0.5907719605029342,0.8946410536301049,0,0,0,0.3874008035154475,0,0,4.2943323533691
24,23,female,27,135,135,left,same,valid,anti,2,0.7211930071252937,1,f,1,same,0.4987459113826844,0.8941268103585525,0,0,0,0.38739919982072024,0,0,4.306923916271444
24,23,female,28,75,75,right,same,valid,anti,2,0.8494218042069406,1,f,1,same,0.5253502307077724,0.8936124098216016,0,0,0,0.3873498060493148,0,0,4.248360864480674
24,23,female,29,135,135,right,same,valid,clock,4,0.7294825008129919,1,f,1,same,0.5050683141516856,0.8930955084458951,0,0,0,0.38739470947803056,0,0,4.203728139246778
24,23,female,30,165,55,left,change,catch,anti,1,0.5775190342419592,0,j,1,change,0.6167893278661722,0,0,0,0,0.38748098820906307,0,0,5.5813646921778854
24,23,female,31,165,165,right,same,valid,anti,4,0.7843018896010108,1,f,1,same,0.41076020863420126,0.8925737688245471,0,0,0,0.38742453818395006,0,0,4.307887415558071
24,23,female,32,45,355,right,change,valid,anti,3,0.7935115828395283,1,j,1,change,1.0111716523369978,0.8920448398325285,0,0,0,0.3874447447269631,0,0,4.592845215956004
24,23,female,33,45,95,right,change,valid,clock,4,0.7534846664420911,1,j,1,change,0.67741825811936,0.8915063369069314,0,0,0,0.3874534046744884,0,0,4.701156134994562
24,23,female,34,15,325,left,change,catch,anti,2,1.8894670027148095,1,j,1,change,0.7430908056376211,0,0,0,0,0.38741042567835393,0,0,7.140515658145887
24,23,female,35,105,105,left,same,valid,anti,1,0.7042076437182914,0,j,0,change,0.38164739133571857,0.8909558222385117,0,0,0,0.387407539029482,0,0,4.5144233020573665
24,23,female,36,135,325,left,same,catch,anti,1,0.7855162066098273,0,j,0,change,0.42667622895896784,0,0,0,0,0.38739663391061185,0,0,5.706139132632416
24,23,female,37,105,55,left,change,valid,anti,1,0.5924074075264798,0,j,1,change,0.687868568947124,0.8924253107659857,0,0,0,0.38741523675980716,0,0,4.72552041470226
24,23,female,38,15,65,right,change,valid,clock,3,1.121447096384145,1,f,0,same,0.7329477625580694,0.8937789505583184,0,0,0,0.38746014018852293,0,0,4.900638334313953
24,23,female,39,105,105,left,same,valid,clock,3,0.7454373305299669,1,j,0,change,0.6674403955094022,0.8932845996937917,0,0,0,0.3874348018252931,0,0,4.4177757279003345
24,23,female,40,15,65,left,change,valid,clock,4,0.6734228151753996,1,f,0,same,0.6948468825157761,0.8927863377192171,0,0,0,0.3873815591878156,0,0,4.369754718227341
24,23,female,41,135,115,right,change,catch,clock,1,0.6734619453063715,0,j,1,change,0.4040253357979964,0,0,0,0,0.3873870117477054,0,0,5.503460129924861
24,23,female,42,45,95,left,change,valid,clock,2,0.7923973363285768,1,j,1,change,0.7694760603781106,0.8922820006591483,0,0,0,0.3874700830911024,0,0,4.860132234182856
24,23,female,43,105,185,right,same,catch,clock,1,0.7134805224968659,0,j,0,change,0.5305766690762539,0,0,0,0,0.3873918228291586,0,0,5.893108991526788
24,23,female,44,105,155,left,change,valid,clock,2,0.8882193288727649,1,f,0,same,0.8717795421262053,0.8917693999908514,0,0,0,0.38747232826153777,0,0,4.965044605141884
24,23,female,45,75,325,right,same,catch,anti,1,0.7854251167973416,0,j,0,change,0.5342731834798542,0,0,0,0,0.38749670440847694,0,0,5.908644615661615
24,23,female,46,105,105,right,same,valid,anti,3,0.8403137851601059,1,f,1,same,0.5122393917254158,0.8912463051552214,0,0,0,0.3873831628816333,0,0,4.448790526146695
24,23,female,47,45,45,right,same,valid,anti,4,1.0254268872758985,1,f,1,same,0.7413386097005059,0.8907104258490335,0,0,0,0.3874678379197576,0,0,4.529412708055133
24,23,female,48,75,75,left,same,valid,clock,4,2.2014348569919093,1,f,1,same,0.9064956658567098,0.8901593938870043,0,0,0,0.38749542145342275,0,0,6.228252467603852
24,23,female,49,165,215,left,change,valid,clock,3,0.6814640570510164,1,f,0,same,0.5653309607214396,0.8895887829588653,0,0,0,0.387457253539651,0,0,4.538993496058538
24,23,female,50,165,115,right,change,valid,anti,4,0.7374493312918275,1,f,0,same,0.511690607678247,0.8890343199261189,0,0,0,0.38743640551911085,0,0,4.125876178153703
24,23,female,51,135,85,left,change,valid,anti,3,0.7372206445434131,1,j,1,change,0.7814745772830065,0.8885002144490269,0,0,0,0.3875101754374555,0,0,4.3425560699488415
24,23,female,52,165,165,right,same,valid,clock,4,0.7774528337595257,1,f,1,same,0.46432037698377826,0.887983930124463,0,0,0,0.38745115950314357,0,0,4.244482170452102
24,23,female,53,75,25,left,change,valid,anti,2,0.9292690812308138,1,j,1,change,0.7973662214599244,0.8874830949829766,0,0,0,0.3873882947018501,0,0,4.343916643840203
24,23,female,54,75,125,left,change,valid,clock,3,0.817457298442605,1,j,1,change,0.5562155646830433,0.8869954795482959,0,0,0,0.3874434617719089,0,0,4.077703459039185
24,23,female,55,135,135,left,same,valid,clock,4,0.6974689220160144,1,j,0,change,0.5101574763248209,0.8865189768939927,0,0,0,0.3874255004002407,0,0,3.9572147301205405
24,23,female,56,45,45,left,same,valid,clock,2,0.7854680957925666,1,f,1,same,0.6316411369289199,0.8860515844118964,0,0,0,0.38740048277577444,0,0,4.464926894011114
24,23,female,57,75,105,left,same,catch,clock,1,0.7054809766623293,0,j,0,change,0.6331502128741704,0,0,0,0,0.38738540805297816,0,0,5.659374456748083
24,23,female,58,15,15,left,same,valid,clock,4,0.9523048609244142,1,f,1,same,0.4400645069827078,0.8855913870392051,0,0,0,0.38738252140410623,0,0,4.586424667120809
24,23,female,1,135,325,left,same,catch,anti,1,0.7843573774080141,0,j,0,change,0.7450527647379204,0,0,0,0,0.3874578950171781,0,0,6.081479837397637
24,23,female,2,135,135,right,same,valid,clock,2,0.6724875409017841,1,f,1,same,0.48566971218861,0.8851365417186596,0,0,0,0.3874210100584605,0,0,4.2908635634976235
24,23,female,3,45,75,right,same,catch,clock,1,0.8254879559372057,0,j,0,change,0.5364901299053599,0,0,0,0,0.3874049731202831,0,0,5.768428206794852
24,23,female,4,105,55,left,change,valid,anti,2,0.728196017578739,1,f,0,same,0.4958066612325638,0.8846852628892722,0,0,0,0.38743768847416504,0,0,4.657936905550741
24,23,female,5,45,95,right,change,valid,clock,3,0.8574858185347694,1,j,1,change,0.5779167503260396,0.8842044425244355,0,0,0,0.38746815865852113,0,0,4.215763220370718
24,23,female,6,45,355,left,change,valid,anti,3,0.6734208907419088,1,j,1,change,0.5113900754440692,0.8837232793881828,0,0,0,0.3874591779731418,0,0,4.130541323662328
24,23,female,7,75,75,right,same,valid,clock,3,0.6334616502281278,1,f,1,same,0.6291403366849408,0.8832397005578396,0,0,0,0.38739727538813895,0,0,4.123059129477042
24,23,female,8,135,85,left,change,valid,anti,2,0.7055194653166836,1,j,1,change,1.0467123954622366,0.8827516338161558,0,0,0,0.3874049731184641,0,0,4.683381433458635
24,23,female,9,75,125,left,change,catch,anti,1,0.985474382274333,0,j,1,change,1.257383567013676,0,0,0,0,0.3874062560735183,0,0,7.063245837933209
24,23,female,10,105,185,right,same,catch,clock,1,0.8804641859860567,0,j,0,change,0.37404395789053524,0,0,0,0,0.387400803514538,0,0,6.408570525003597
24,23,female,11,135,85,right,change,valid,anti,3,0.7038683020909957,1,j,1,change,0.5709345878913155,0.8822569910817519,0,0,0,0.38751594873428985,0,0,4.5526813441010745
24,23,female,12,15,325,right,change,valid,anti,4,0.7614845330135722,1,j,1,change,0.49905446208686044,0.8817536518825135,0,0,0,0.38740785976915504,0,0,4.132138282033338
24,23,female,13,45,355,right,change,valid,anti,4,0.6894376230429771,1,j,1,change,0.5416370250586624,0.8812394466727291,0,0,0,0.3874113878937351,0,0,4.0291814553966105
24,23,female,14,105,105,right,same,valid,anti,3,0.6254723680340248,1,j,0,change,0.6404383601020527,0.8807121397959301,0,0,0,0.3873876532252325,0,0,4.331037057516369
24,23,female,15,165,55,left,change,catch,anti,1,0.6094633334632817,0,j,1,change,0.452479022080297,0,0,0,0,0.38745019728594343,0,0,5.5812822623120155
24,23,female,16,45,45,right,same,valid,clock,4,0.6803677719126426,1,f,1,same,0.4487061718464247,0.8801694118933817,0,0,0,0.3874392921679828,0,0,4.34988463026275
24,23,female,17,15,15,right,same,valid,clock,4,0.665459833562636,1,f,1,same,0.410151446434611,0.8796036478371112,0,0,0,0.3874075390285725,0,0,3.7965114526195975
24,23,female,18,45,45,left,same,valid,anti,3,0.6175109901141695,1,f,1,same,0.4759564590694936,0.8790515229449349,0,0,0,0.38742229301169573,0,0,4.0046956156948
24,23,female,19,165,115,right,change,valid,anti,3,0.8094805250620993,1,f,0,same,0.5238020246324595,0.878519237581538,0,0,0,0.38739118135163153,0,0,4.217845456510986
24,23,female,20,15,65,left,change,valid,clock,3,0.5854788084670872,1,f,0,same,0.6189283347703167,0.8780043068191596,0,0,0,0.3873857287926512,0,0,3.8366150255860703
24,23,female,21,165,165,right,same,valid,clock,4,0.721493539358562,1,f,1,same,0.4781618588986021,0.877504400835081,0,0,0,0.3873815591887251,0,0,4.061614239773917
24,23,female,22,75,325,right,same,catch,anti,2,0.5374792882939801,1,j,0,change,0.9167394209125632,0,0,0,0,0.3874309529601305,0,0,5.940056809251473
24,23,female,23,165,215,right,change,valid,clock,3,3.0564211582404823,1,j,1,change,1.2912789202146087,0.8770173239649346,0,0,0,0.3874598194488499,0,0,7.242576019900298
24,23,female,24,15,15,left,same,valid,clock,2,0.961446878282004,1,f,1,same,0.5298931747438473,0.8765409955762564,0,0,0,0.3874447447269631,0,0,4.803676115418057
24,23,female,25,15,15,right,change,catch,clock,1,0.6814743206923595,0,j,1,change,0.36095268397366453,0,0,0,0,0.38740785976733605,0,0,5.28468132357375
24,23,female,26,45,45,right,same,valid,anti,2,0.6001083455576008,1,f,1,same,0.4199349413465825,0.8760734324985523,0,0,0,0.3874213307972241,0,0,4.180039976881744
24,23,female,27,105,155,right,change,valid,clock,2,0.7614745901119022,1,f,0,same,0.6210535499049001,0.8756127327745964,0,0,0,0.3874514802409976,0,0,4.229952062381926
24,23,female,28,105,155,left,change,valid,clock,1,0.6654518150935473,0,j,1,change,0.6277422363564256,0.875157060521712,0,0,0,0.38749221406578727,0,0,4.3610982993795915
24,23,female,29,165,215,left,change,valid,clock,2,0.6574711928460601,1,j,1,change,0.5995271668944042,0.8765151043424169,0,0,0,0.3874075390285725,0,0,4.239509757195265
24,23,female,30,105,105,right,same,valid,clock,2,0.7214277879102156,1,f,1,same,0.6102988579768862,0.8760581796406124,0,0,0,0.38744378251067246,0,0,4.2426885992117604
24,23,female,31,105,55,right,change,valid,anti,3,0.6814794525125762,1,j,1,change,0.6131899973115651,0.8756079160916478,0,0,0,0.38741331232813536,0,0,4.174215681432543
24,23,female,32,75,25,left,change,valid,anti,3,0.8094702614216658,1,f,0,same,0.5003784717555391,0.875162554415311,0,0,0,0.3874495558102353,0,0,4.367825474486381
24,23,female,33,15,15,right,same,valid,anti,2,0.625466594734462,1,f,1,same,0.49522997291023785,0.8747203848689323,0,0,0,0.3873937472617399,0,0,4.046644398842545
24,23,female,34,135,115,right,change,catch,clock,1,0.6174519741798576,0,j,1,change,0.3766098681044241,0,0,0,0,0.3874745734337921,0,0,5.534537792971605
24,23,female,35,75,125,right,change,valid,clock,1,0.7684602806730254,0,j,1,change,0.5566854469907412,0.8742489541599796,0,0,0,0.3874428202943818,0,0,4.569480679016124
24,23,female,36,75,105,left,same,catch,clock,1,0.593486693509476,0,j,0,change,0.5187949715855211,0,0,0,0,0.3873623148610932,0,0,5.5034226034895255
24,23,female,37,75,75,left,same,valid,anti,2,0.6322553516856715,1,f,1,same,0.8073428011139185,0.8754765748295932,0,0,0,0.38741106715497153,0,0,4.585110279613218
24,23,female,38,165,165,left,same,valid,clock,3,0.6974711671864497,1,j,0,change,0.6989266797572782,0.8750413576661464,0,0,0,0.3873632770773838,0,0,4.405211427794711
24,23,female,39,15,325,left,change,valid,anti,3,0.7214435041096294,1,j,1,change,0.6427297179234301,0.8746088154582787,0,0,0,0.38742389670551347,0,0,4.50113317009891
24,23,female,40,45,95,left,change,valid,clock,3,0.6574262894191634,1,j,1,change,0.5798681250435038,0.8741471615608095,0,0,0,0.38742389670733246,0,0,4.038896312209545
24,23,female,41,75,25,right,change,valid,anti,2,0.6653806110844016,1,f,0,same,1.060235704513616,0.8736844856106198,0,0,0,0.3874380092129286,0,0,4.669146084324893
24,23,female,42,135,185,left,change,valid,clock,4,0.8174188097891602,1,j,1,change,0.6169121708189778,0.8732188605985478,0,0,0,0.3873340898499009,0,0,4.643314745451789
24,23,female,43,135,185,right,change,valid,clock,3,0.7774339101706573,1,j,1,change,0.6081204002057348,0.8727483517661769,0,0,0,0.3874001620370109,0,0,4.273023110510621
24,23,female,44,135,135,left,same,valid,anti,1,1.8094561489160697,0,j,0,change,0.5097138945966435,0.8722710017142232,0,0,0,0.38739470947803056,0,0,5.213511634156021
24,23,female,45,15,325,left,change,catch,anti,1,0.6974320370572968,0,j,1,change,0.5490294123865169,0,0,0,0,0.3874408958618005,0,0,5.565799880814666
24,23,female,46,75,75,left,same,valid,clock,3,0.9204134836018056,1,f,1,same,0.5495817245609942,0.8735354222923387,0,0,0,0.38743512256405666,0,0,4.535573137742176
24,23,female,47,165,165,left,same,valid,anti,4,0.7054344695388863,1,f,1,same,0.5918550953538215,0.8730775423111314,0,0,0,0.38735012678807834,0,0,3.9781596137272572
24,23,female,48,135,135,right,same,valid,anti,4,0.6654360988923145,1,f,1,same,0.4526323352147301,0.8726142824878982,0,0,0,0.38741844414653315,0,0,4.198993393421915
24,23,female,49,15,15,left,same,valid,anti,4,0.6494809484374855,1,f,1,same,0.4135641070224665,0.8721437471178113,0,0,0,0.38749606293094985,0,0,3.745213454863915
24,23,female,50,135,135,left,same,valid,clock,4,0.6014904089497577,1,j,0,change,0.7898942909141624,0.8716640001403653,0,0,0,0.38738925691905024,0,0,4.2640449906703
24,23,female,51,165,165,right,same,valid,anti,4,0.6414865344249847,1,f,1,same,0.5082298362758593,0.8711730506256659,0,0,0,0.3874094634629728,0,0,4.212081139214206
24,23,female,52,105,105,left,same,valid,clock,3,0.753447140003118,1,j,0,change,0.6396307398608769,0.8706688377998943,0,0,0,0.3874020864695922,0,0,4.222961240002405
24,23,female,53,75,125,left,change,valid,clock,4,1.0254958461136994,1,j,1,change,0.8672439750826015,0.8701492154424908,0,0,0,0.3874312736988941,0,0,4.7767654905619565
24,23,female,54,15,65,right,change,valid,clock,4,0.6814621326175256,1,f,0,same,0.616237336431368,0.8696044978203272,0,0,0,0.3874627060995408,0,0,4.394923410787669
24,23,female,55,75,75,right,same,valid,anti,4,0.8014800170112721,1,f,1,same,0.5159410379492329,0.8690722572008784,0,0,0,0.38744249955561827,0,0,4.377843429441782
24,23,female,56,105,105,left,same,valid,anti,3,0.7294180323187902,1,f,1,same,0.5661430713062146,0.8685587637062575,0,0,0,0.38743576404158375,0,0,4.088544429698231
24,23,female,57,165,115,left,change,valid,anti,1,0.6814865087653743,0,j,1,change,0.4644890855797712,0.8680617257626203,0,0,0,0.3874627060977218,0,0,4.152477290092065
24,23,female,58,45,45,left,same,valid,clock,1,0.7694831166318181,0,j,0,change,0.4385294511957909,0.8695107431540472,0,0,0,0.387404331640937,0,0,4.137780718596332
24,23,female,1,105,105,right,same,valid,anti,2,0.9044778982115531,1,f,1,same,0.4460033061768627,0.8709523562480812,0,0,0,0.387404331642756,0,0,4.585214519715009
24,23,female,2,165,165,right,same,valid,anti,4,0.6894786776065303,1,f,1,same,0.3388140106399078,0.8704588127536237,0,0,0,0.387430632221367,0,0,3.7699231702335965
24,23,female,3,165,115,right,change,valid,anti,4,0.6815022249647882,1,f,0,same,0.41071049412494176,0.8699473598670868,0,0,0,0.38740529385904665,0,0,3.753630923323726
24,23,female,4,45,355,left,change,valid,anti,1,0.7214422211545752,0,j,1,change,0.5821825760576758,0.8694202896839132,0,0,0,0.38741202937308117,0,0,4.104289816992605
24,23,female,5,105,105,left,same,valid,clock,2,0.6733965145958791,1,f,1,same,0.6924512845907884,0.8708460132552513,0,0,0,0.38744891433088924,0,0,4.336214743592791
24,23,female,6,135,325,left,same,catch,anti,1,0.6174336920703354,0,j,0,change,0.32418575650444836,0,0,0,0,0.38747361121750146,0,0,5.362899889089022
24,23,female,7,165,55,left,change,catch,anti,1,0.6561154300379712,0,j,1,change,0.29354461893490225,0,0,0,0,0.3874367262578744,0,0,5.76868896742053
24,23,female,8,45,45,left,same,valid,clock,3,0.8724495654314524,1,f,1,same,0.37670576900018204,0.870357324043812,0,0,0,0.3874652720096492,0,0,4.5687991091162985
24,23,female,9,75,75,right,same,valid,clock,3,0.7294988584908424,1,f,1,same,0.3911313162279839,0.8698476849942,0,0,0,0.38736423929549346,0,0,3.884739954623001
24,23,female,10,165,215,left,change,valid,clock,3,0.8974598130353115,1,j,1,change,0.5715045406977879,0.8693329718264216,0,0,0,0.38737546515221766,0,0,4.1831787265509774
24,23,female,11,15,65,left,change,valid,clock,4,1.0894582144719607,1,f,0,same,0.7717751159307227,0.8688372169691865,0,0,0,0.38746623422593984,0,0,4.624318029174901
24,23,female,12,15,15,left,same,valid,anti,4,0.6334610087487818,1,f,1,same,0.3955302485537686,0.8683582722119328,0,0,0,0.38744249955561827,0,0,3.934359205621149
24,23,female,13,45,45,right,same,valid,anti,3,0.6574920408675098,1,f,1,same,0.44579739187975065,0.8678941227666388,0,0,0,0.3874976666265866,0,0,3.9778982116240513
24,23,female,14,135,135,right,same,valid,clock,2,0.6334616502263088,1,f,1,same,0.3784015149121842,0.867442870713633,0,0,0,0.38744698990012694,0,0,3.8868818481732887
24,23,female,15,75,25,left,change,valid,anti,2,0.6094896340437117,1,f,0,same,0.38497826353159326,0.8670027198557105,0,0,0,0.3875085717445472,0,0,3.657028894072937
24,23,female,16,45,355,right,change,valid,anti,3,0.7534301408504689,1,j,1,change,0.7982107266579987,0.8665719617912857,0,0,0,0.3874149160201341,0,0,4.389250183301556
24,23,female,17,75,125,left,change,valid,clock,3,0.9693825970989565,1,j,1,change,0.6636999398924672,0.8661489630370673,0,0,0,0.387440575123037,0,0,4.6447221472044475
24,23,female,18,75,75,left,same,valid,clock,4,0.9294765992199245,1,f,1,same,0.5113721140733105,0.865732153047633,0,0,0,0.387490289633206,0,0,4.426257344115584
24,23,female,19,135,185,left,change,valid,clock,1,0.7774974164494779,0,j,1,change,0.38463411082557286,0.8653200129936738,0,0,0,0.38737674810545286,0,0,4.0267598776317755
24,23,female,20,135,135,left,same,valid,clock,2,0.7133583210215875,1,f,1,same,0.5888959593976324,0.8665475410579897,0,0,0,0.3874328773927118,0,0,4.072427626899298
24,23,female,21,75,105,left,same,catch,clock,1,0.6254941782717651,0,j,0,change,0.3537995677725121,0,0,0,0,0.38748612002927985,0,0,5.316165362648462
24,23,female,22,45,75,right,same,catch,clock,1,0.7275317675721453,0,j,0,change,0.3277510887492099,0,0,0,0,0.38743095295831154,0,0,5.862147435918814
24,23,female,23,165,215,right,change,valid,clock,3,0.7044546125762281,1,j,1,change,0.4723382049269276,0.8661333535586904,0,0,0,0.3873696918544738,0,0,4.355227817544801
24,23,female,24,135,115,right,change,catch,clock,1,0.6494966646368994,0,j,1,change,0.45034033591582556,0,0,0,0,0.387463989054595,0,0,5.42537210509181
24,23,female,25,105,155,left,change,valid,clock,2,0.7282482979990164,1,f,0,same,0.5676620901504066,0.8657251897990501,0,0,0,0.38735814525716705,0,0,4.427123338813544
24,23,female,26,75,75,left,same,valid,anti,2,0.8494901215672144,1,j,0,change,1.0554445086636406,0.8653215883903971,0,0,0,0.38743961290674633,0,0,4.770962043132386
24,23,female,27,165,115,left,change,valid,anti,2,0.6254300305154175,1,f,0,same,0.47624352027560235,0.8649211274181804,0,0,0,0.3873815591887251,0,0,4.396363527894209
24,23,female,28,45,45,right,same,valid,clock,3,0.7134904653976264,1,f,1,same,0.5032670451819286,0.864494646601948,0,0,0,0.3874851578129892,0,0,4.2278015088832035
24,23,female,29,165,165,right,same,valid,clock,4,0.6334699894341611,1,f,1,same,0.44914173510733235,0.8640682174132082,0,0,0,0.3874559705836873,0,0,4.063142880786472
24,23,female,30,45,95,right,change,valid,clock,3,0.6815060738299508,1,j,1,change,0.5665465606871294,0.8636401750438559,0,0,0,0.3874056145959912,0,0,4.197696646548138
24,23,female,31,75,25,right,change,valid,anti,4,1.0894463471377094,1,f,0,same,0.8090927518805984,0.863208853662053,0,0,0,0.38742453818485956,0,0,4.784026374991299
24,23,female,32,135,185,right,change,valid,clock,4,0.6654986429530254,1,j,1,change,0.5651003495404439,0.8627725744720001,0,0,0,0.3874319151746022,0,0,4.257595896082421
24,23,female,33,15,65,right,change,valid,clock,4,0.6094819363133865,1,f,0,same,0.5012800684580725,0.8623296337451287,0,0,0,0.38737546515221766,0,0,4.197318816268307
24,23,female,34,15,15,right,same,valid,anti,4,0.9054176628269488,1,f,1,same,0.5601128615599009,0.8618782906936209,0,0,0,0.38744634842078085,0,0,4.207932383134903
24,23,female,35,45,45,left,same,valid,anti,4,0.5934828446443134,1,f,1,same,0.4648983482602489,0.8614167550564675,0,0,0,0.3874684793972847,0,0,3.8337790533205407
24,23,female,36,105,55,right,change,valid,anti,3,0.5774590560922661,1,j,1,change,0.7714412268651358,0.8609431742657456,0,0,0,0.3874732904787379,0,0,4.139030637608812
24,23,female,37,15,325,left,change,valid,anti,3,1.2254787186611793,1,j,1,change,1.0979738289988745,0.8604556200563644,0,0,0,0.38741106715497153,0,0,5.387778633794369
24,23,female,38,75,75,right,same,valid,anti,4,0.7214531262725359,1,f,1,same,0.7479862415893876,0.8599497081355776,0,0,0,0.38738123844996153,0,0,4.916676556113089
24,23,female,39,105,105,right,same,valid,clock,4,0.569472019069508,1,f,1,same,0.41360676527801843,0.8594244672602761,0,0,0,0.38748612002927985,0,0,3.8332751727011782
24,23,female,40,75,125,right,change,valid,clock,3,0.6654405892368231,1,j,1,change,0.6014557691614755,0.8589184615576632,0,0,0,0.3875348723231582,0,0,4.129929674814775
24,23,female,41,105,155,right,change,valid,clock,2,0.6173759590892587,1,f,0,same,1.5162438153547555,0.8584294906480539,0,0,0,0.3874986288428772,0,0,5.090462447582468
24,23,female,42,135,85,left,change,valid,anti,2,0.8014970161675592,1,j,1,change,1.0655676659389428,0.8579554881802998,0,0,0,0.38741106715497153,0,0,4.747688596004082
24,23,female,43,15,325,left,change,catch,anti,1,0.9215020710107638,0,j,1,change,0.11513078765165119,0,0,0,0,0.387414274544426,0,0,5.7997114633963065
24,23,female,44,45,95,left,change,valid,clock,1,0.6876501458409621,0,j,1,change,0.4811482576515118,0.8574945049483691,0,0,0,0.3874713660461566,0,0,4.391538975214644
24,23,female,45,165,165,left,same,valid,anti,1,0.7774829832051182,0,j,0,change,0.901797163514857,0.858844692593135,0,0,0,0.3874094634629728,0,0,4.574407868107301
24,23,female,46,15,15,right,same,valid,clock,3,0.8094904679637693,1,f,1,same,0.5166495499070152,0.8602606824868863,0,0,0,0.38749093111255206,0,0,4.314663663695683
24,23,female,47,105,185,right,same,catch,clock,1,0.6815214692906011,0,j,0,change,0.5525681233120849,0,0,0,0,0.38746623422593984,0,0,5.581206247221417
24,23,female,48,105,105,left,same,valid,anti,2,0.7205576236083289,1,j,0,change,0.6154563375093858,0.8597581748793639,0,0,0,0.387523646466434,0,0,4.733592447499177
24,23,female,49,15,15,left,same,valid,clock,2,0.6654710594193602,1,f,1,same,0.7651005419829744,0.8592567611982034,0,0,0,0.38745885723255924,0,0,4.173170714497246
24,23,female,50,135,135,left,same,valid,anti,3,0.7854854156867077,1,f,1,same,0.864328459600074,0.8587732757573057,0,0,0,0.38748740298433404,0,0,4.695104756492583
24,23,female,51,135,85,right,change,valid,anti,3,1.377421657949526,1,j,1,change,0.8920297055428819,0.8583056940241678,0,0,0,0.3874678379179386,0,0,5.43801755210734
24,23,female,52,135,135,right,same,valid,anti,4,0.6974737330983771,1,f,1,same,0.5995265254168771,0.8578521121804081,0,0,0,0.3874890066781518,0,0,4.320035075992564
24,23,female,53,105,55,left,change,valid,anti,3,0.617424711383137,1,f,0,same,0.7328297306885361,0.8574107321601723,0,0,0,0.3875181939056347,0,0,4.389812438377703
24,23,female,54,75,125,left,change,catch,anti,1,0.7615227009282535,0,j,1,change,0.392697162937111,0,0,0,0,0.38746366831401247,0,0,5.7532117177415785
24,23,female,55,75,325,right,same,catch,anti,1,2.352391524542327,0,j,0,change,0.7346608283660316,0,0,0,0,0.3874194063628238,0,0,7.8902162484973815
24,23,female,56,15,325,right,change,valid,anti,3,0.6803876577141637,1,j,1,change,0.7212956435323576,0.8569798479044338,0,0,0,0.3874501972877624,0,0,4.743774299971847
24,23,female,57,165,165,left,same,valid,clock,4,0.6734500779712107,1,f,1,same,0.6134812281216,0.8565578326679487,0,0,0,0.3875409663596656,0,0,4.304187373027162
24,23,female,58,15,15,right,change,catch,clock,1,0.6814679059152695,0,j,1,change,0.44256402426981367,0,0,0,0,0.38750343992433045,0,0,5.737331299422294
24,23,female,1,165,165,left,same,valid,clock,1,0.872075584016784,0,j,0,change,0.4617358639206941,0.8561431272318383,0,0,0,0.3874732904769189,0,0,4.576951326607741
24,23,female,2,105,155,left,change,valid,clock,1,0.6655117932441499,0,j,1,change,0.3537245148982038,0.8573705067803779,0,0,0,0.38746559274841275,0,0,3.9421274987962533
24,23,female,3,45,45,left,same,valid,anti,2,0.6335530607775581,1,f,1,same,0.4908339272333251,0.8586370848383982,0,0,0,0.38747681860513694,0,0,3.913773870182922
24,23,female,4,165,165,right,same,valid,anti,3,0.6254912916210742,1,f,1,same,0.4494849255970621,0.8581892723375139,0,0,0,0.3874691208748118,0,0,3.9968012721783452
24,23,female,5,15,325,left,change,valid,anti,3,0.6094623712469911,1,j,1,change,0.49555167390462884,0.8577545792420411,0,0,0,0.3874800259927724,0,0,4.105922377366369
24,23,female,6,105,185,right,same,catch,clock,1,0.6494969853756629,0,j,0,change,0.5737032050128619,0,0,0,0,0.38744506546572666,0,0,5.815192561938602
24,23,female,7,75,75,left,same,valid,anti,3,0.5924523109551956,1,f,1,same,0.5584062105281191,0.8573313420970177,0,0,0,0.3874229344910418,0,0,4.381979355968724
24,23,female,8,135,185,left,change,valid,clock,2,0.5854945246683201,1,j,1,change,0.7126780340768164,0.8569179809452341,0,0,0,0.3873517304818961,0,0,4.132972202853125
24,23,female,9,15,15,right,change,catch,clock,1,0.6735591291562741,0,j,1,change,0.3050649143206101,0,0,0,0,0.38751723169116303,0,0,5.472211513109869
24,23,female,10,75,25,left,change,valid,anti,2,1.0644941532536905,1,f,0,same,0.6754704115264758,0.8565129880012032,0,0,0,0.3875031191837479,0,0,4.912045729652164
24,23,female,11,75,25,right,change,valid,anti,3,1.0654040891622572,1,f,0,same,0.6645431621382158,0.8561149171217889,0,0,0,0.3874521217203437,0,0,4.724660193302043
24,23,female,12,45,355,left,change,valid,anti,3,0.8974620582066564,1,j,1,change,0.5770343979511381,0.8557223739587082,0,0,0,0.38755700329784304,0,0,4.581193738409638
24,23,female,13,165,165,left,same,valid,anti,3,1.233485962226041,1,f,1,same,0.6284244477355969,0.8553340066882051,0,0,0,0.38747874303771823,0,0,4.673551110685366
24,23,female,14,15,65,left,change,valid,clock,3,0.7375077057495218,1,j,1,change,0.4567875060693041,0.8549484972217362,0,0,0,0.38748162968659017,0,0,4.288026629015803
24,23,female,15,135,185,right,change,valid,clock,4,0.7455040441946039,1,j,1,change,0.4779941125198093,0.8545378095163353,0,0,0,0.38746302683648537,0,0,4.060339623876644
24,23,female,16,45,45,right,same,valid,anti,3,0.7933903435805405,1,f,1,same,1.410436262469375,0.8541270986729671,0,0,0,0.38744121660238307,0,0,4.851375103358805
24,23,female,17,165,115,left,change,valid,anti,3,0.6894087565542577,1,f,0,same,0.5847856919717742,0.8537148132757244,0,0,0,0.3874707245686295,0,0,4.4467015544923925
24,23,female,18,75,125,left,change,catch,anti,2,1.073369315947275,1,f,0,same,0.7069692045879492,0,0,0,0,0.3874594987119053,0,0,6.299166207474627
24,23,female,19,105,105,left,same,valid,anti,2,0.6641877835736523,1,f,1,same,0.5283148192229419,0.8532993992063567,0,0,0,0.38744249955561827,0,0,4.375480226133732
24,23,female,20,105,105,right,same,valid,anti,2,1.2334484357888869,1,f,1,same,0.5518150286643504,0.8528792889271835,0,0,0,0.3874585364937957,0,0,4.622087932459181
24,23,female,21,75,75,right,same,valid,clock,3,0.8894532109479769,1,f,1,same,0.40275617245606554,0.852452890708861,0,0,0,0.38746880013604823,0,0,4.315547940503166
24,23,female,22,135,135,right,same,valid,anti,2,0.6814682266540331,1,f,1,same,0.4249448810405738,0.8520185776914356,0,0,0,0.38746880013422924,0,0,3.9285762854724453
24,23,female,23,45,95,left,change,valid,clock,2,0.6894709798762051,1,j,1,change,0.7533098638068623,0.8515746766659811,0,0,0,0.38749349702084146,0,0,4.348234108516408
24,23,female,24,135,85,right,change,valid,anti,2,1.0894704025467945,1,j,1,change,1.2132730045068456,0.851119456461426,0,0,0,0.38745885723437823,0,0,5.233485320748514
24,23,female,25,135,135,left,same,valid,anti,2,0.6890248322379193,1,j,0,change,0.6803979213564162,0.8506511158169197,0,0,0,0.387513703564764,0,0,4.910944633429608
24,23,female,26,15,325,right,change,valid,anti,3,0.6573999888387334,1,j,1,change,0.510930777514659,0.8501677706142052,0,0,0,0.3875185146462172,0,0,3.963225054059876
24,23,female,27,45,95,right,change,valid,clock,3,0.6254803865031136,1,j,1,change,0.5277050948061515,0.8496570576857694,0,0,0,0.38743768847416504,0,0,3.9193540834221494
24,23,female,28,45,75,right,same,catch,clock,1,0.6814833013777388,0,j,0,change,0.47917186530867184,0,0,0,0,0.3875460981817014,0,0,5.721426504955161
24,23,female,29,15,15,right,same,valid,clock,4,0.6723563587438548,1,f,1,same,0.3893637248293089,0.8491540297932827,0,0,0,0.3874075390285725,0,0,4.244082209197586
24,23,female,30,165,55,left,change,catch,anti,1,0.641462158277136,0,j,1,change,0.32373191113401845,0,0,0,0,0.3875088924833108,0,0,5.378522112694554
24,23,female,31,105,155,right,change,valid,clock,3,0.7042875076749624,1,f,0,same,0.5359349310838297,0.8486684389162809,0,0,0,0.38743383960900246,0,0,4.624533886371864
24,23,female,32,75,125,left,change,valid,clock,2,0.6334799323376501,1,j,1,change,0.560411790100261,0.8481982653972273,0,0,0,0.38745693280179694,0,0,4.1012504963437095
24,23,female,33,15,65,right,change,valid,clock,3,0.6175058582939528,1,f,0,same,0.5179366746178857,0.8477416056777238,0,0,0,0.38745372541234246,0,0,3.997285908470076
24,23,female,34,15,325,left,change,catch,anti,1,0.6814602081867633,0,j,1,change,0.3917115326767089,0,0,0,0,0.3874906103719695,0,0,5.627703747702981
24,23,female,35,45,45,left,same,valid,clock,1,0.6164605706198927,0,j,0,change,0.5295118163376173,0.8472966575408096,0,0,0,0.3874912518494966,0,0,4.3535471463546855
24,23,female,36,75,125,right,change,valid,clock,3,0.6574920408675098,1,j,1,change,0.691984288931053,0.8486022387792362,0,0,0,0.3874578950162686,0,0,4.447694882484939
24,23,female,37,105,105,right,same,valid,clock,4,0.7214698046882404,1,f,1,same,0.7156535277099465,0.8481422005168837,0,0,0,0.38750728878949303,0,0,4.400511963236568
24,23,female,38,15,15,left,same,valid,clock,4,0.6013996398760355,1,f,1,same,0.530813053555903,0.8476952506172799,0,0,0,0.3875104961753095,0,0,4.071871465857839
24,23,female,39,135,85,left,change,valid,anti,1,1.417418424904099,0,j,1,change,0.4412005637313996,0.8472596560333022,0,0,0,0.387470403828047,0,0,4.775186172822941
24,23,female,40,15,15,left,same,valid,anti,4,0.6655053784688789,1,f,1,same,0.4443973671186541,0.8485380349546543,0,0,0,0.387513703564764,0,0,4.280635845381767
24,23,female,41,75,75,right,same,valid,anti,4,0.7054934854750172,1,f,1,same,0.4086898398290941,0.8480877478031547,0,0,0,0.38748932741691533,0,0,4.092940796112089
24,23,female,42,165,115,right,change,valid,anti,4,0.7854453233412642,1,f,0,same,0.5441660503147432,0.8476501424732454,0,0,0,0.38744378251067246,0,0,4.316725051814501
24,23,female,43,105,55,right,change,valid,anti,2,0.8254542783670331,1,j,1,change,0.6571995271024207,0.8472235512734632,0,0,0,0.3875390419270843,0,0,4.193869912200171
24,23,female,44,75,325,right,same,catch,anti,1,0.641471459701279,0,j,0,change,0.48202195007979753,0,0,0,0,0.3875124206078908,0,0,5.5813682203042845
24,23,female,45,75,105,left,same,catch,clock,1,0.6244572298037383,0,j,0,change,0.38341017165294033,0,0,0,0,0.3874918933270237,0,0,5.8310081910276494
24,23,female,46,135,135,left,same,valid,clock,1,0.6482066532753379,0,j,0,change,0.6403091023730667,0.846806386336983,0,0,0,0.3874912518494966,0,0,4.549537141872861
24,23,female,47,165,215,right,change,valid,clock,3,0.6572633541200048,1,j,1,change,0.7575615770329023,0.8480348453864905,0,0,0,0.3874534046735789,0,0,4.264717579884746
24,23,female,48,135,115,right,change,catch,clock,1,0.6174423520151322,0,j,1,change,0.414847703606938,0,0,0,0,0.3874508387652895,0,0,5.627869248912248
24,23,female,49,105,55,left,change,valid,anti,1,0.6405406757712626,0,j,1,change,0.3876163399727375,0.8476062394854718,0,0,0,0.38751851464439824,0,0,4.235720870023215
24,23,female,50,75,75,left,same,valid,clock,1,0.8494497084793693,0,j,0,change,0.7902756493203924,0.8488606949810504,0,0,0,0.38744698989830795,0,0,4.502839500391929
24,23,female,51,45,45,right,same,valid,clock,3,1.0574885768874083,1,f,1,same,0.48578742331847025,0.8501848144773466,0,0,0,0.3875217220338527,0,0,4.399944897078967
24,23,female,52,15,15,right,same,valid,anti,3,0.9534662560363358,1,f,1,same,0.4831759681983385,0.8497115742378198,0,0,0,0.3874931762820779,0,0,4.560275476120296
24,23,female,53,135,135,right,same,valid,clock,3,0.8175047677814291,1,f,1,same,0.47804895885019505,0.8492439357375869,0,0,0,0.387500232534876,0,0,4.019890615247277
24,23,female,54,165,215,left,change,valid,clock,3,0.7534525925620983,1,j,1,change,0.5491666885827726,0.8487928632927172,0,0,0,0.38751787316869013,0,0,3.913627613299468
24,23,female,55,45,355,right,change,valid,anti,4,0.649507569756679,1,j,1,change,0.5037385311825346,0.8483565910362217,0,0,0,0.38746559274841275,0,0,3.82865589283756
24,23,female,56,135,325,left,same,catch,anti,1,0.9534688219464442,0,j,0,change,0.5770135499315074,0,0,0,0,0.38750857174272824,0,0,5.768448413336955
24,23,female,57,165,165,right,same,valid,clock,4,0.6803344150775956,1,f,1,same,0.4642126087546785,0.8479334561922747,0,0,0,0.38751594873428985,0,0,4.448348227373572
24,23,female,58,105,105,left,same,valid,clock,1,0.6174340128090989,0,j,0,change,0.3705421319264133,0.8475218869870176,0,0,0,0.387420689319697,0,0,3.720861363230142
24,23,female,1,15,15,left,same,valid,anti,2,0.7122171324535884,1,f,1,same,0.40542407760403876,0.8487270455209524,0,0,0,0.3874129915875528,0,0,3.9932955973472417
24,23,female,2,165,165,right,same,valid,anti,3,0.6254851975845668,1,f,1,same,0.4577442698409868,0.8482995813378336,0,0,0,0.3874293492663128,0,0,3.916000438770425
24,23,female,3,165,165,left,same,valid,clock,2,0.6893786071086652,1,f,1,same,0.48063058526531677,0.8478848577949685,0,0,0,0.387414274542607,0,0,3.878654577809357
24,23,female,4,105,185,right,same,catch,clock,1,0.6254746132053697,0,j,0,change,0.3508115653276036,0,0,0,0,0.3874399336455099,0,0,5.284986987628145
24,23,female,5,45,355,left,change,valid,anti,2,0.6564791478103871,1,j,1,change,0.6517046303779352,0.8474813592859571,0,0,0,0.3874027279471193,0,0,4.511439148476711
24,23,female,6,15,15,right,change,catch,clock,1,0.5855060712656268,0,j,1,change,0.3923510857985093,0,0,0,0,0.38750664731196593,0,0,5.581380087638536
24,23,female,7,165,55,left,change,catch,anti,1,0.5438937430917576,0,j,1,change,0.4003865543745633,0,0,0,0,0.3874931762820779,0,0,5.737188891404003
24,23,female,8,75,75,left,same,valid,clock,2,0.664481259553213,1,f,1,same,0.4113619145791745,0.8470876465035775,0,0,0,0.3874380092129286,0,0,4.336956933120746
24,23,female,9,45,75,right,same,catch,clock,1,0.5774664330820087,0,j,0,change,0.39605561866846983,0,0,0,0,0.3875595692097704,0,0,5.3002256076561025
24,23,female,10,75,125,left,change,valid,clock,3,0.6562976096611237,1,j,1,change,0.5485858306583395,0.8467023466780841,0,0,0,0.38743768847416504,0,0,4.381349425011649
24,23,female,11,165,165,left,same,valid,anti,3,0.681478169557522,1,j,0,change,0.5242834535347356,0.8463241444995004,0,0,0,0.387463989054595,0,0,4.243845183242229
24,23,female,12,105,55,left,change,valid,anti,1,0.993496379822318,0,j,1,change,0.435916713120605,0.8459517736306563,0,0,0,0.3874732904787379,0,0,4.4878651691160485
24,23,female,13,15,325,left,change,catch,anti,1,0.6095133687140333,0,j,1,change,0.37409976643721166,0,0,0,0,0.38754321153101046,0,0,5.393951893032863
24,23,female,14,165,115,left,change,valid,anti,3,0.9840833381967968,1,f,0,same,0.45102607542139594,0.8470556840044194,0,0,0,0.38750151549174916,0,0,4.802375198938535
24,23,female,15,45,45,left,same,valid,clock,3,0.6815201863373659,1,f,1,same,0.4224354208508885,0.8466776712166784,0,0,0,0.38746559274841275,0,0,3.7403507342678495
24,23,female,16,75,125,left,change,catch,anti,1,0.8494394448389357,0,j,1,change,0.3519694323113072,0,0,0,0,0.3874963836697134,0,0,5.628073880252487
24,23,female,17,105,105,right,same,valid,anti,4,0.8564857550300076,1,f,1,same,0.42170638161042007,0.8463065714444593,0,0,0,0.38746174388325016,0,0,4.657160396971449
24,23,female,18,45,45,right,same,valid,clock,3,0.6334715931279788,1,f,1,same,0.40699120726822,0.8459411610028822,0,0,0,0.3875380797107937,0,0,3.8075381310300145
24,23,female,19,75,325,right,same,catch,anti,1,0.5614064010478614,0,j,0,change,0.7216513428375038,0,0,0,0,0.3874591779713228,0,0,5.768391963312752
24,23,female,20,45,355,right,change,valid,anti,3,0.5601904803443176,1,j,1,change,0.5829417647437367,0.8455802556057099,0,0,0,0.38747874303771823,0,0,4.114504384820975
24,23,female,21,165,165,right,same,valid,clock,3,0.67349530213869,1,f,1,same,0.45737092990384554,0.8452227031851569,0,0,0,0.3874752149113192,0,0,4.058117545630012
24,23,female,22,105,105,left,same,valid,clock,2,0.8575268730983225,1,j,0,change,1.013401428313955,0.8448673770486628,0,0,0,0.3874716867831012,0,0,4.800992173331906
24,23,female,23,105,55,right,change,valid,anti,3,0.6654559846974735,1,j,1,change,0.6338561589236633,0.8444884772981043,0,0,0,0.3874918933270237,0,0,4.434756921702501
24,23,female,24,135,135,right,same,valid,clock,4,0.705455317560336,1,f,1,same,0.6004165755221038,0.8441092989728369,0,0,0,0.3874392921679828,0,0,4.4270550214550894
24,23,female,25,75,75,right,same,valid,anti,4,0.6014936163355742,1,f,1,same,0.4410850977710652,0.8437285071747627,0,0,0,0.3875149865179992,0,0,3.8350796490612993
24,23,female,26,15,65,left,change,valid,clock,4,0.593449808551668,1,f,0,same,0.5017714402638376,0.8433447633251743,0,0,0,0.38743832995169214,0,0,3.996308617415707
24,23,female,27,105,155,left,change,valid,clock,4,0.9614869706274476,1,j,1,change,0.4923369091429777,0.8429567166662302,0,0,0,0.3875050436181482,0,0,4.361340777893929
24,23,female,28,75,75,left,same,valid,anti,2,0.5854906758031575,1,f,1,same,0.49467830221510667,0.8425629957094539,0,0,0,0.38746110240572307,0,0,3.775639697452789
24,23,female,29,15,15,right,same,valid,clock,4,0.8734800991205702,1,f,1,same,0.650711302385389,0.8421621995498996,0,0,0,0.3874825919028808,0,0,4.431445293832439
24,23,female,30,15,325,right,change,valid,anti,4,0.6334468962431856,1,j,1,change,0.5555012794266077,0.8417528889637298,0,0,0,0.3874951007146592,0,0,4.047887261602227
24,23,female,31,135,85,left,change,valid,anti,1,1.2414322654240095,0,j,1,change,0.7276209329520498,0.8413335772050232,0,0,0,0.38745019728594343,0,0,5.022149578453536
24,23,female,32,75,25,right,change,valid,anti,4,0.6734548890526639,1,f,0,same,0.8614623378907709,0.842454102804338,0,0,0,0.38748355411917146,0,0,4.525577955238987
24,23,female,33,165,115,right,change,valid,anti,4,1.169488633337096,1,f,0,same,0.5598716660006176,0.8420574609046929,0,0,0,0.3874335188702389,0,0,4.656571520577927
24,23,female,34,75,75,right,same,valid,clock,4,0.6974727708820865,1,f,1,same,0.44242386142468604,0.8416520551656603,0,0,0,0.38749798736353114,0,0,4.190669580686517
24,23,female,35,45,45,left,same,valid,anti,3,0.6974945811180078,1,f,1,same,0.5975209458465542,0.841236428576184,0,0,0,0.3875448152266472,0,0,4.104593556614418
24,23,female,36,135,115,right,change,catch,clock,1,0.6495194370909303,0,j,1,change,0.32621924034901895,0,0,0,0,0.3874479521145986,0,0,5.581151721629794
24,23,female,37,15,15,left,same,valid,clock,1,0.5604663156918832,0,j,0,change,0.35776903087571554,0.8408090664741219,0,0,0,0.3874492350714718,0,0,4.254208894599287
24,23,female,38,75,125,right,change,valid,clock,1,0.6332522078046168,0,j,1,change,0.6578576830725069,0.8419551383748816,0,0,0,0.38743191517642117,0,0,4.153378245315253
24,23,female,39,15,15,right,same,valid,anti,4,0.6574314212375612,1,f,1,same,0.5834312121169205,0.8429999094448699,0,0,0,0.38753070271923207,0,0,4.098611457686275
24,23,female,40,45,95,right,change,valid,clock,4,0.5774978654826555,1,j,1,change,0.6326610862379312,0.8426253066405208,0,0,0,0.3874213307954051,0,0,4.218517724988487
24,23,female,41,75,25,left,change,valid,anti,1,1.2654350725297263,0,j,1,change,2.076875952994669,0.8422441415139379,0,0,0,0.38747296973815537,0,0,6.372756512440901
24,23,female,42,135,135,left,same,valid,anti,1,0.6415131557423592,0,j,0,change,1.0527496614595293,0.8432559117115117,0,0,0,0.3876211510541907,0,0,5.0312935202418885
24,23,female,43,75,105,left,same,catch,clock,1,0.6014814282625593,0,j,0,change,0.3815957523929683,0,0,0,0,0.3874678379197576,0,0,5.877344680642636
24,23,female,44,15,65,right,change,valid,clock,3,0.6722527601177717,1,f,0,same,0.45542629070223484,0.8442052757493634,0,0,0,0.3874614231426676,0,0,4.364400305086747
24,23,female,45,15,325,left,change,valid,anti,3,0.6174089951837232,1,j,1,change,0.596159730477666,0.8438547407420359,0,0,0,0.387430632221367,0,0,4.058581654640875
24,23,female,46,45,45,right,same,valid,anti,4,0.6013871310624381,1,f,1,same,0.45067775310963043,0.8435018796842553,0,0,0,0.38750023253669497,0,0,3.945244758968329
24,23,female,47,135,85,right,change,valid,anti,3,0.601509332536807,1,j,1,change,1.0735771546751494,0.8431455321404435,0,0,0,0.38743832995169214,0,0,4.533375756382156
24,23,female,48,135,135,left,same,valid,clock,3,0.7934756600952824,1,f,1,same,0.7674088989624579,0.8427845230859654,0,0,0,0.3875044021388021,0,0,4.8159854281966545
24,23,female,49,165,215,left,change,valid,clock,3,0.6974519228606368,1,j,1,change,0.5787115410148544,0.8424176560269934,0,0,0,0.3874485935921257,0,0,4.250236544847212
24,23,female,50,105,105,left,same,valid,anti,4,0.6494729299683968,1,f,1,same,0.5825398790566396,0.842043705983595,0,0,0,0.3875104961771285,0,0,4.069721233099699
24,23,female,51,45,95,left,change,valid,clock,3,0.5934780335628602,1,j,1,change,0.6055593010714801,0.8416614122746042,0,0,0,0.38746174388325016,0,0,4.300726922363538
24,23,female,52,135,135,right,same,valid,anti,4,0.5534119870335417,1,f,1,same,0.46941306728149357,0.8412694710411494,0,0,0,0.3874931762820779,0,0,3.833690850156927
24,23,female,53,105,155,right,change,valid,clock,2,0.7614989662597509,1,f,0,same,0.7180228250545042,0.8408665274432854,0,0,0,0.38749285554331436,0,0,4.450385560083305
24,23,female,54,135,185,right,change,valid,clock,2,5.009487453020483,1,f,0,same,0.1419002874445141,0.8404511674610098,0,0,0,0.38747746008266404,0,0,8.267676395100352
24,23,female,55,105,105,right,same,valid,clock,1,0.6254479918861762,0,j,0,change,0.4847735680450569,0.8400219092269736,0,0,0,0.38752396720519755,0,0,4.469871723735196
24,23,female,56,135,325,left,same,catch,anti,1,0.6254733302503155,0,j,0,change,0.5070014067605371,0,0,0,0,0.3873988790819567,0,0,5.53434438748809
24,23,female,57,165,215,right,change,valid,clock,3,0.7924444849286374,1,j,1,change,0.6138702842581552,0.8411784768300596,0,0,0,0.3875422493147198,0,0,4.747891944389266
24,23,female,58,135,185,left,change,valid,clock,1,0.5534838325202145,0,j,1,change,0.3813741218964424,0.8407782410688621,0,0,0,0.38743897142921924,0,0,3.835883099694911
