subject,age,gender,ntrial,memory_ori,test_ori,cue,type,trial_type,which_change,pas,pas_rt,vis,test_key,test_acc,test,test_rt,contrast,fix_dur,cue_dur,jitter_dur,target_dur,mask_dur,retention_dur,trial_dur
2,22,female,1,75,125,right,change,valid,clock,4,2.6403016583317367,1,j,1,change,2.5462013347732864,0.5,0.9968157360635814,0.5019571291850298,0.4003509489939461,0.03486236590106273,0.34859511352806294,0.9023148136257078,9.902732090760765
2,22,female,2,135,85,right,change,valid,anti,2,2.5773284128208616,1,f,0,same,1.9265143214888667,0.4069419370673367,0.6437120409318595,0.501972524498342,0.34458687960068346,0.03485146088678448,0.3485858121930505,0.902335340710124,8.808207754618707
2,22,female,3,105,105,left,same,valid,anti,2,2.473288810942904,1,j,0,change,6.235260912069862,0.3461892688284379,0.8166828745106613,0.5019786184748227,0.34455448529661226,0.034842801022023195,0.3486162820827303,0.9023032671429974,13.175939563132488
2,22,female,4,75,185,left,change,catch,clock,2,0.9694249080766895,1,f,0,same,2.9494526966173,0,0.7749134655114176,0.5019228104647482,0.49796268689351564,0.03479918097036716,0.3486233382682258,0.9023045500853186,10.008886623782018
2,22,female,5,45,95,right,change,valid,clock,3,2.256324266349111,1,f,0,same,1.6375936868953431,0.2977447647674634,1.168958430089333,0.5020764428627444,0.44908930307974515,0.03485530971556727,0.3485973586775799,0.9023231527553435,8.839580516205388
2,22,female,6,15,325,left,change,valid,anti,2,2.9932465892961773,1,j,1,change,2.138626135083541,0.25592670972998877,0.7508509117869835,0.5020103713104618,0.4002928958325356,0.03488032709901745,0.3485553423015517,0.902296852427753,9.587640386012936
2,22,female,7,45,45,right,same,valid,anti,2,3.881305022207016,1,j,0,change,5.572790965003151,0.21928796852134014,0.5942735208318481,0.5019670719902933,0.4491726943597314,0.03485081941471435,0.34856528510863427,0.9023141721554566,13.815552281201235
2,22,female,8,75,25,left,change,valid,anti,2,0.6574299064213847,1,f,0,same,1.8669039896958566,0.18534516214727204,1.0556777914898703,0.5019779770045716,0.4003528734065185,0.034836707043723436,0.34858549145610596,0.9023388688037812,7.295305519988688
2,22,female,9,75,125,left,change,valid,clock,2,0.9853366056922823,1,j,1,change,2.8927677950578072,0.15488367948209586,0.5444558911440254,0.5018663609844225,0.34468213810214365,0.03484504617335915,0.34854251287470106,0.902282098586511,8.07483597576902
2,22,female,10,105,155,left,change,valid,clock,2,0.7374438391798321,1,j,1,change,1.710291317813244,0.12473050325576701,0.6463173769461719,0.5019494315274642,0.4003839847682684,0.03485178162372904,0.3485604740726558,0.9023574714738061,6.811320815231738
2,22,female,11,15,65,left,change,valid,clock,2,5.313287887223851,1,f,0,same,4.418552057968554,0.09631031933527462,0.8329525131557602,0.501953280356247,0.4003717968134879,0.03486910134961363,0.348510760040881,0.9023045500853186,14.283622080985879
2,22,female,12,165,165,right,same,valid,clock,2,5.985355849834377,1,j,0,change,2.10552877768896,0.07085810833100747,0.8081650967724272,0.5020802916915272,0.40032079983757285,0.03486974282168376,0.3485534178871603,0.9023417554235493,12.61438140348946
2,22,female,13,165,165,left,same,valid,anti,2,4.617381885875147,1,f,1,same,1.4684200431584031,0.0459659317711002,0.7056335941124416,0.5020312191281846,0.2957872649967612,0.034842480286897626,0.34856528510863427,0.9023513774955063,10.399397722520007
2,22,female,14,45,45,left,same,valid,anti,2,0.7294437288474,1,f,1,same,1.4877026728827332,0.02302303833090036,0.5286375276155013,0.5019757318550546,0.400382060353877,0.034808803038686165,0.34860473559820093,0.9023478494036681,6.452652035133724
2,22,female,15,45,125,left,same,catch,clock,2,0.6254275406754459,1,f,1,same,1.545768983063681,0,0.796862050296113,0.50195103520673,0.2957606439340452,0.03487295017839642,0.3485364188964013,0.9023436798397597,8.075136505111004
2,22,female,16,15,15,left,same,valid,anti,1,3.840281965160102,0,j,0,change,1.9369687013277144,5.3127085395621165e-05,1.3088001534397335,0.5019882405467797,0.2957391546424333,0.03484664985080599,0.3486239797402959,0.9022782497595472,10.69584602377654
2,22,female,17,75,75,right,same,valid,clock,2,4.569376412840938,1,f,1,same,1.8680560722968949,0.04888850447319565,0.9549238060280913,0.5019908064314222,0.3445778990026156,0.03484087660945079,0.34856560584375984,0.9023860169509135,11.054331022325641
2,22,female,18,165,215,right,change,valid,clock,2,4.2893215542080725,1,j,1,change,3.0437560458685766,0.03521432499071708,0.6870578658508748,0.5019529596193024,0.34457918194493686,0.03483927293018496,0.34865316668765445,0.9022865888855449,11.678555483425953
2,22,female,19,135,85,left,change,valid,anti,2,1.2654363673227635,1,f,0,same,2.0163565580187424,0.02285248430984177,0.5503083552939643,0.5019699586118804,0.40036057106408407,0.034854347508371575,0.3485348152171355,0.9023154550995969,7.544594769698961
2,22,female,20,135,135,right,same,valid,anti,1,0.31333022433682345,0,j,0,change,2.397599678237384,0.010721587492523277,1.1952116085794842,0.5019301873853692,0.29574877671439026,0.03484953647421207,0.34862911151139997,0.9023023049358017,7.513369546531976
2,22,female,21,75,75,left,same,valid,anti,2,1.9134969427468604,1,f,1,same,1.092109517127028,0.03889909454478768,0.86747906878918,0.5020094091014471,0.49797198822852806,0.034859479279475636,0.34854347508189676,0.9023417554253683,7.685166808218128
2,22,female,22,15,325,right,change,valid,anti,2,1.609428602952903,1,j,1,change,0.8856522737605701,0.029832326749052063,1.01479104711143,0.501996900409722,0.4979450464288675,0.034847612059820676,0.34853577742615016,0.9024200149324315,7.326069845970778
2,22,female,23,105,105,right,same,valid,clock,2,0.9694037395202031,1,f,1,same,1.3472066487229313,0.021298358856205846,0.5833303398012504,0.5019321118015796,0.2958446766861016,0.03478121977059345,0.3486528459507099,0.9022962109556829,6.514731069537447
2,22,female,24,105,55,left,change,valid,anti,1,0.7290338286347833,0,j,1,change,2.9819528441548755,0.013186856910718747,0.9616948571947432,0.5019609780138126,0.4979431220144761,0.03485114015165891,0.3485813218921976,0.902335340711943,8.480443461996401
2,22,female,25,105,155,left,same,catch,anti,2,0.8334538230410544,1,f,1,same,4.048105542569829,0,0.7705277256754925,0.5020167860220681,0.40036634430543927,0.034830933804187225,0.3485870951353718,0.9023071159699612,10.86702683146541
2,22,female,26,15,15,right,same,valid,anti,1,1.5525544673364493,0,j,0,change,2.049258266641118,0.03269598235682625,1.1752047576646873,0.5019555255075829,0.4979793651491491,0.03488417592780024,0.34855887039520894,0.9022429688320699,8.589969247863337
2,22,female,27,75,15,right,same,catch,clock,2,2.2093804284522776,1,j,0,change,1.408623363926381,0,0.909257137653185,0.501945903435626,0.34458046488543914,0.03485114014983992,0.3486429031454463,0.9022930035989702,9.681654431669813
2,22,female,28,45,15,right,change,catch,clock,1,0.7437645774371049,0,j,1,change,2.2991395944354736,0,1.2587596124485572,0.5020029943898408,0.4491640344967891,0.03482676423845987,0.34856720952302567,0.9023093611194781,9.572668123233598
2,22,female,29,105,85,left,same,catch,anti,2,1.1841994693750166,1,f,1,same,1.4245273638862272,0,1.091554965116302,0.5019160750161973,0.34462600935512455,0.03484632911568042,0.3485267968244443,0.9023491323459893,8.96423764975225
2,22,female,30,45,355,left,change,valid,anti,1,1.1282923518647294,0,j,1,change,1.6939617015941622,0.05026700658182137,0.7401919025796815,0.5019420546068432,0.3446282545046415,0.034841838816646487,0.3485649643735087,0.9023831303293264,7.232840961283728
2,22,female,31,105,155,right,change,valid,clock,2,1.4013882082163036,1,j,1,change,2.749120542735909,0.06676059015875008,1.2713125659101934,0.5020020321808261,0.295757115840388,0.03483253747981507,0.34856849246534694,0.902378960765418,9.026680077695346
2,22,female,32,165,165,right,same,valid,anti,2,0.9373420376723516,1,f,1,same,1.5783133921249828,0.0611177246209616,0.6736257758584543,0.5019561669760151,0.2957606439340452,0.03487840268462605,0.34856656805095554,0.9023356614470686,6.795799132216416
2,22,female,33,15,65,right,change,valid,clock,2,0.8174542438464414,1,j,1,change,2.411810193749261,0.05560554389104527,0.8523262318176421,0.5019577706570999,0.497949857464846,0.03483863145993382,0.34860666001259233,0.9023125684780098,7.887776506238879
2,22,female,34,15,15,right,same,valid,clock,1,0.5932365823446162,0,j,0,change,5.2676455947603245,0.05057457646683389,0.72912940786955,0.5019978626169177,0.29580330178032455,0.03482708497358544,0.3485877366056229,0.9023337370326772,10.19671938706233
2,22,female,35,45,45,left,same,valid,clock,1,0.6093702290581859,0,j,0,change,1.9190014086707379,0.06381829646692838,0.7224529737322882,0.5019779770045716,0.34457020134505,0.03484472543823358,0.3485527764169092,0.9023552263242891,6.9049316961281875
2,22,female,36,165,115,left,change,valid,anti,1,0.6334863456395396,0,j,1,change,1.5653380297590047,0.07610311106043638,0.5322685763712798,0.5019600158047979,0.4979485745225247,0.03482195320430037,0.34860922589905385,0.9023369443912088,6.546483582180372
2,22,female,37,105,105,right,same,valid,anti,2,0.4814480061777431,1,f,1,same,2.343059856977561,0.08855201100688842,0.7142572146276507,0.5020642549061449,0.49795595144314575,0.034825160559194046,0.3485681717284024,0.9023231527553435,7.3418599847591395
2,22,female,38,45,45,right,same,valid,clock,2,1.1053639195451979,1,j,0,change,1.253793341014898,0.08431346127617506,0.5617111505689536,0.5020004285033792,0.29576673791416397,0.034854026773246005,0.34853513595226104,0.9022955694854318,6.530184756586095
2,22,female,39,75,25,right,change,valid,anti,1,0.6974984540538571,0,j,1,change,2.0925723387281323,0.08007826817975772,1.2177727985326783,0.5019651475759019,0.34457661605847534,0.034877761212555924,0.34856560584557883,0.9022686276875902,7.669021294283084
2,22,female,40,135,135,right,same,valid,clock,1,1.6893626725232025,0,j,0,change,1.411603960699722,0.09076498000697558,0.5273866584229836,0.5019641853705252,0.44912747062699054,0.03488577960524708,0.3485547008294816,0.9022314223475405,7.388592778572274
2,22,female,41,165,165,left,same,valid,clock,1,1.5854500819805253,0,j,0,change,1.2218506321059976,0.10106042647612923,1.1551844358509697,0.5020039565952175,0.34459457725643006,0.03484953647239308,0.3485784352706105,0.9022878718296852,7.622617896025986
2,22,female,42,135,135,left,same,valid,anti,1,1.753413269219891,0,j,0,change,0.8481515360672347,0.11104622046652218,1.0604253211840842,0.5019853539270116,0.4002819908182573,0.0348264435033343,0.34862462121054705,0.9022744009289454,7.372697438477189
2,22,female,43,75,75,left,same,valid,clock,1,1.3694679508062109,0,j,0,change,2.4421206787264964,0.1207818395747634,0.6482286409263907,0.5020459729712456,0.29574332420816063,0.034842801023842185,0.3486162820845493,0.902284343736028,8.059125379430043
2,22,female,44,165,115,right,change,valid,anti,1,0.761333516365994,0,j,1,change,2.681941169377751,0.13031175917854715,1.0397054748300434,0.5019446204933047,0.2957683415897918,0.034847932793127256,0.34865509110204584,0.9022602885597735,8.090801877715421
2,22,female,45,15,165,right,change,catch,clock,1,0.7454622314489825,0,j,1,change,1.1676171134295146,0,0.7929542066412978,0.501987278339584,0.4003041215819394,0.0348617244289926,0.3485886988128186,0.9023696594304056,7.9191111002783146
2,22,female,46,105,85,right,same,catch,clock,1,2.2804095923056593,0,j,0,change,0.856022069181563,0,1.2524417608128715,0.5020373131083034,0.29580426398752024,0.0348617244289926,0.3485097978336853,0.9023860169509135,9.51045085174519
2,22,female,47,105,105,left,same,valid,clock,2,0.8084380428445002,1,f,1,same,1.6668274621588353,0.13967422424672893,0.9641507303786057,0.5020296154507378,0.4491034154489171,0.034808482303560595,0.34864001652385923,0.9023141721554566,7.201630812693111
2,22,female,48,45,95,left,change,valid,clock,2,0.7534379658682155,1,f,0,same,2.8801981633387186,0.1363139270676499,0.8882027639701846,0.5019728452334675,0.40035223193626734,0.03481040671977098,0.34859607573525864,0.9023436798397597,8.230995768855792
2,22,female,49,135,185,right,change,valid,clock,1,1.8095137903510476,0,j,1,change,1.0247284010183648,0.133178937362181,0.9133429896155576,0.5019526388841768,0.4979527440864331,0.034906627424788894,0.34859703794245434,0.9023526604378276,7.560310818542348
2,22,female,50,165,215,left,change,valid,clock,1,1.4893961573307024,0,f,0,same,2.7082992284376814,0.141515457045518,1.0497291066367325,0.5020026736510772,0.29586520377051784,0.03477865388413193,0.34859415132086724,0.9023840925347031,8.854959151103685
2,22,female,51,135,135,left,same,valid,clock,1,0.5133663391752634,0,j,0,change,4.84843442494639,0.1497819347816916,0.848215683205126,0.5019398094573262,0.3446401217242965,0.03480495421172236,0.3486563740443671,0.9023039086132485,9.869159403073354
2,22,female,52,15,45,left,same,catch,clock,1,0.4334444575579255,0,j,0,change,2.143576369735456,0,0.7744888114557398,0.5019542425634427,0.40037147607654333,0.03481714216832188,0.3485819633642677,0.9023273223174328,8.574231388989574
2,22,female,53,105,75,right,change,catch,clock,2,0.7441270087674638,1,f,0,same,1.332011153903295,0,1.0440591410970228,0.5019914479034924,0.4979286889083596,0.034900854183433694,0.3485611155429069,0.9022468176608527,8.448981535888379
2,22,female,54,15,15,left,same,valid,clock,1,0.6962825450500532,0,j,0,change,1.0295641330249055,0.15803699535185328,1.3580853618805122,0.5019892027539754,0.29575166333597736,0.034825802031264175,0.3486040941261308,0.9022875510927406,6.702418860284524
2,22,female,55,105,55,right,change,valid,anti,1,2.2894049454880587,0,j,1,change,1.4642905711407366,0.1662927192722396,1.094488093009204,0.5019699586136994,0.4003695516639709,0.03482131173223024,0.34860569780539663,0.9023039086132485,8.558535546495477
2,22,female,56,135,185,left,change,valid,clock,1,0.4494129253907886,0,j,1,change,1.7557479043116473,0.17454499703946863,0.8372009781141969,0.50198214656848,0.4979479330504546,0.0348931565276871,0.3485344944820099,0.9022997390493401,6.858287425364324
2,22,female,57,45,355,right,change,valid,anti,3,1.5374256855393469,1,f,0,same,1.3178830674660276,0.18220238440915681,0.6670324122642342,0.5019699586118804,0.49797327117084933,0.034836386308597866,0.3485441165521479,0.9023667728088185,7.32629628536597
2,22,female,58,75,75,right,same,valid,anti,1,2.6093779267139325,0,f,1,same,2.7484072265597206,0.1792750812468169,1.1945111218301463,0.5019426960789133,0.2958331302015722,0.03479533214158437,0.348617244289926,0.9023417554253683,10.165402112750598
2,22,female,1,75,125,left,change,valid,clock,2,1.9587444095759565,1,f,0,same,2.427663517470137,0.18685923429236329,1.0435466054623248,0.5019298666502436,0.4003272145509982,0.034836386308597866,0.3486021697135584,0.902333095560607,9.14859171372882
2,22,female,2,45,355,left,change,valid,anti,1,0.9534657415806578,0,j,1,change,1.083914078757516,0.18422950295378332,0.7278118256526795,0.5019786184766417,0.4491983532152517,0.03480944451075629,0.34858260483633785,0.9023388688037812,6.530402215385038
2,22,female,3,165,165,right,same,valid,anti,2,0.4654288621059095,1,f,1,same,1.6692326591055462,0.19121968812536577,1.1671437075510767,0.5019256970863353,0.400408681416593,0.03478410639218055,0.3486079429549136,0.9023122477410652,7.014315396083475
2,22,female,4,75,15,right,same,catch,clock,1,0.4893211051767139,0,j,0,change,3.303308196207581,0,0.7129361043189419,0.5020171067590127,0.4003012349603523,0.03486461104876071,0.348583246306589,0.90233758586146,9.72852899065765
2,22,female,5,45,45,left,same,valid,anti,1,1.8564698162062996,0,f,1,same,1.8859114281985967,0.18856370978795578,1.3481650069661555,0.5019519974139257,0.3445512779380806,0.034865252520830836,0.34853866404591827,0.9023731875222438,8.761744378785806
2,22,female,6,75,75,right,same,valid,anti,2,1.1533979380546953,1,f,1,same,1.571438743332692,0.1955638444204919,0.7432308732477395,0.5019689964065037,0.40034196839224023,0.03485627192276297,0.3485848499858548,0.9023189831914351,7.185726171263013
2,22,female,7,15,15,right,same,valid,clock,1,2.217377331427997,0,j,0,change,1.608256314002574,0.1931768937385971,1.29086172699499,0.5019786184766417,0.34456218295235885,0.034791483312801574,0.3485803596850019,0.9023395102740324,8.777183953465283
2,22,female,8,75,25,left,change,valid,anti,2,0.8654411142106255,1,j,1,change,1.1597578060645901,0.199610510048981,0.6917110992508242,0.5018891332183557,0.4491909762928117,0.03485178162191005,0.3485880573425675,0.9023568300017359,6.483758586095064
2,22,female,9,75,75,left,same,valid,anti,2,0.3934054176115751,1,f,1,same,3.0112161271044897,0.19722502975399908,1.1177433549983107,0.5019564877129596,0.497911369182475,0.03486878061448806,0.34862365900517034,0.9023520189675764,8.324532880538754
2,22,female,10,45,95,right,change,valid,clock,2,0.7694513366968749,1,f,0,same,1.43198927973026,0.19497924687088453,0.9849497984487243,0.501975411119929,0.29570900548787904,0.034860120749726775,0.348583246308408,0.902318341719365,6.795852695078793
2,22,female,11,45,45,left,same,valid,clock,1,0.9134770571345143,0,j,0,change,1.346345152658614,0.19267935130650793,0.8441683195251244,0.5020209555859765,0.34457918194493686,0.034843121758967754,0.34852936271090584,0.9023516982306319,6.764677185941764
2,22,female,12,15,165,right,change,catch,clock,1,0.8494181213100092,0,j,1,change,0.9692610121401231,0,0.9389386599395948,0.5020039565952175,0.34457950268006243,0.03483574483834673,0.34859511352806294,0.9023071159699612,7.919115911312474
2,22,female,13,135,135,right,same,valid,clock,4,0.9602627723361365,1,f,1,same,4.092261225108814,0.19852729345623904,1.050601507715328,0.5019709208190761,0.44919514585853904,0.03481136892514769,0.34858934028670774,0.9023215490760776,9.869231247866992
2,22,female,14,15,65,right,change,valid,clock,1,0.8493940661337547,0,j,1,change,2.63589635362041,0.1963944113083716,0.679832652946061,0.5019904856962967,0.44915216727531515,0.03480976524588186,0.34864097873105493,0.9022907584512723,7.918911923412452
2,22,female,15,45,355,right,change,valid,anti,2,0.9293804156222905,1,j,1,change,1.4160849590352882,0.20240222823766912,0.7284221856734803,0.5019580913904065,0.29576224761331105,0.03482131173223024,0.34861499914040905,0.9023609995656443,6.6866749074361
2,22,female,16,45,95,left,change,valid,clock,2,0.4892447700840421,1,f,0,same,1.4499989094983903,0.20025273573469382,1.0651282686176273,0.5019728452334675,0.3446054822707083,0.034791804047927144,0.3485745864436467,0.9024113550694892,6.655362764895472
2,22,female,17,75,25,right,change,valid,anti,2,1.0813244587916415,1,j,1,change,1.302489678726488,0.19818449987279274,0.814925884396871,0.5019256970863353,0.44913965858359006,0.03484664985262498,0.34858741587231634,0.9023895450427517,6.951766804626459
2,22,female,18,135,185,right,change,valid,clock,2,0.4894574178470066,1,j,1,change,1.1116830541213858,0.196239886709494,1.225519527672077,0.501934036214152,0.29577860513381893,0.034865893992900965,0.3485633606942429,0.90227472166589,6.4369500986576895
2,22,female,19,105,105,right,same,valid,clock,3,3.689164778603299,1,j,0,change,1.2447216527380078,0.19438230353280594,0.8630872349767742,0.5019574499201553,0.4979918738408742,0.03484697058775055,0.3486127539908921,0.9023898657778773,9.603511670929947
2,22,female,20,15,15,right,same,valid,anti,2,0.9453687690674997,1,j,0,change,2.5126879831896076,0.19245682684500665,1.0033597063611523,0.5019802221540886,0.34459457725824905,0.034778974621076486,0.3486419409400696,0.9022913999215234,8.121859356117056
2,22,female,21,75,185,left,change,catch,clock,2,0.7294623315174249,1,j,1,change,1.0371825678867026,0,0.591178421414952,0.5020357094290375,0.3445576926533249,0.03482997159517254,0.3485899817569589,0.9023218698130222,7.513425675277176
2,22,female,22,75,125,right,change,valid,clock,1,0.4164422585945431,0,j,1,change,1.714868536855647,0.19055848751099203,1.259088045795579,0.502025766621955,0.29577764292662323,0.03482259467455151,0.34866663758657523,0.9023132099482609,7.014259588073401
2,22,female,23,135,135,right,same,valid,anti,2,1.089142391250789,1,f,1,same,1.0762966061047337,0.19550181052223853,0.5236170518473955,0.5019834295126202,0.4980258718242112,0.03481040671977098,0.3485944720559928,0.9023116062708141,6.499545838261838
2,22,female,24,75,75,right,same,valid,clock,2,1.3134264450418414,1,j,0,change,1.5726017309461895,0.19379576335069187,1.2355781196692988,0.5019183201657142,0.4004298499712604,0.03482387761687278,0.3485575874528877,0.9023969219633727,7.825456920065335
2,22,female,25,15,45,left,same,catch,clock,2,2.689343107647801,1,f,1,same,1.9387590479527717,0,1.1982842564957537,0.5019260178214608,0.40034453427870176,0.034895080942078494,0.34860633927746676,0.9022590056174522,11.038988630562017
2,22,female,26,105,55,left,change,valid,anti,1,0.30436983134495676,0,j,1,change,2.2421413341053267,0.1920137344786641,1.0987641412357334,0.5019256970881543,0.29576128540611535,0.03488193077646429,0.3485861329281761,0.9022365541168256,7.263898118950237
2,22,female,27,105,85,left,same,catch,anti,1,0.33731483928568196,0,j,0,change,2.2303559011506877,0,0.6225848602498445,0.5020228800003679,0.4979479330504546,0.03478410639036156,0.3486201309115131,0.9023151343626523,8.49611557004937
2,22,female,28,45,125,left,same,catch,clock,2,0.6802108003248577,1,f,1,same,1.6753272786972957,0,0.9959237701077654,0.5019754111181101,0.49794472569374193,0.034854026771427016,0.34860473559820093,0.9022853059432236,8.668107839035656
2,22,female,29,105,55,right,change,valid,anti,2,0.7683842490550887,1,j,1,change,1.835581262877895,0.19661061841255606,1.3139745823373232,0.5019410923996475,0.4979870628048957,0.03487583679998352,0.34851332592552353,0.9023699801655312,7.732011538788356
2,22,female,30,45,15,right,change,catch,clock,1,0.2974717688430246,0,j,1,change,1.1265045711243147,0,0.6221563573672029,0.5019324325367052,0.44915986493106175,0.03485338529935689,0.34854283360982663,0.9023497738162405,7.310716549192875
2,22,female,31,135,85,left,change,valid,anti,1,0.6001211739439896,0,j,1,change,4.39158652550941,0.19498013276143045,1.2653786348982976,0.5019677134623635,0.34451343112777977,0.03486653546497109,0.3485986416199012,0.902327963791322,9.915996435986017
2,22,female,32,105,105,right,same,valid,anti,2,0.6654784478450892,1,f,1,same,1.2240319555385213,0.19937237236990069,0.7269099168916,0.5019077358883806,0.34458591739530675,0.0348979675618466,0.3485867744002462,0.9023343785047473,6.265245850321662
2,22,female,33,15,65,left,change,valid,clock,2,0.48941187337914016,1,f,0,same,2.2444111805907596,0.19771752894155553,1.0203275866060721,0.5019779770045716,0.29573851317218214,0.03484632911568042,0.3485415506656864,0.9023696594304056,7.357441645348445
2,22,female,34,165,165,right,same,valid,clock,2,1.2414822222617659,1,j,0,change,1.4908802013706008,0.19614471246857906,0.5067194127204857,0.5019815050982288,0.29575166333415837,0.03488545887012151,0.3485219857902848,0.9023975634354429,6.842743290850194
2,22,female,35,135,185,left,change,valid,clock,2,0.4653554136330058,1,f,0,same,2.318869329714289,0.194631353423032,1.1336977104601829,0.5019657890479721,0.4003262523438025,0.034831575274438364,0.34860922589723486,0.9023237942255946,7.622647403710289
2,22,female,36,105,155,left,same,catch,anti,2,0.48940449645851913,1,j,0,change,2.5395742939308548,0,0.7643048118061415,0.5020145408743701,0.40035126972907165,0.03477640873461496,0.34860569780539663,0.9024241844963399,9.026421243992445
2,22,female,37,165,165,left,same,valid,clock,2,0.360322814056417,1,f,1,same,2.744143045551027,0.19305585317355956,1.1282917103926593,0.5019779770045716,0.2957866235246911,0.03487423312071769,0.348592868376727,0.90224361030414,7.8411662334601715
2,22,female,38,165,115,left,change,valid,anti,2,0.5051279222225276,1,f,0,same,0.9913430229735241,0.1915004691670935,1.0093327671274892,0.5020520669495454,0.4003326670572278,0.034854026771427016,0.3485162125471106,0.9023943560787302,6.218439608035624
2,22,female,39,45,45,right,same,valid,anti,2,1.2973713785722794,1,j,0,change,1.398022087141726,0.1899455297881809,0.8990365741319692,0.5020023529159516,0.2957532670134242,0.034877761212555924,0.3485909439641546,0.9023100025915483,7.20142939067955
2,22,female,40,105,155,right,change,valid,clock,2,0.6894001986001967,1,j,1,change,1.3949584198253433,0.18844213123151282,1.1004223447580443,0.5019596950696723,0.49793382068128267,0.034854026773246005,0.34860730148466246,0.9023853754788433,6.9984020947886165
2,22,female,41,75,75,left,same,valid,clock,2,0.29739992404938675,1,j,0,change,1.7214410526285064,0.18701586688910904,0.9713801128473278,0.5019269800286565,0.4004106058309844,0.03478282344804029,0.3486586191938841,0.9022538738463481,6.702102294157157
2,22,female,42,15,325,right,change,valid,anti,2,0.4493250438117684,1,j,1,change,2.2304521218593436,0.18564800122687414,0.5852829786854272,0.5020148616076767,0.4491422244682326,0.034854668243497144,0.34860088676941814,0.902316096569848,7.02956317081771
2,22,female,43,135,135,left,same,valid,clock,2,0.8412274939764757,1,j,0,change,3.33692418321516,0.18432193305372002,0.5143981458913913,0.502011654252783,0.4979485745225247,0.03488642107731721,0.3486146784052835,0.9022830607937067,8.495896828309924
2,22,female,44,15,15,left,same,valid,clock,3,1.4174076730250817,1,f,1,same,1.1946820739540271,0.18293256509268085,1.051484493071257,0.5020616890196834,0.44909892514988314,0.03489091137817013,0.3485620777501026,0.9023253979048604,7.4195703937875805
2,22,female,45,105,105,left,same,valid,anti,2,0.5214790277350403,1,f,1,same,1.4815371707009035,0.18155467468364822,1.116560481770648,0.501994655260205,0.2957721904185746,0.03484729132287612,0.34859062322721,0.9022538738445292,6.7332175049850775
2,22,female,46,135,135,left,same,valid,anti,1,0.2574657646709966,0,j,0,change,0.9571519568726217,0.18017267355471495,0.6996188377052022,0.5020209555877955,0.49794151833702927,0.034825160559194046,0.34859703794245434,0.9023549055873445,5.719386740529444
2,22,female,47,45,45,right,same,valid,clock,2,0.40942776904012135,1,f,1,same,1.356058312314417,0.18381646928954493,0.9844196223530162,0.5019795806838374,0.44915505389690225,0.03485691339301411,0.3485271175613889,0.9024155246333976,6.515072332313139
2,22,female,48,105,105,left,same,valid,clock,2,0.36940155851880263,1,f,1,same,1.458843196169255,0.18250327904422425,0.7054520577130461,0.501999145561058,0.3445198458412051,0.034854668243497144,0.34857715232828923,0.9023186624563095,6.187488293147908
2,22,female,49,105,75,right,change,catch,clock,2,0.3774533072992199,1,j,1,change,1.6039812279814214,0,0.6153981356274016,0.5019914479034924,0.4003211205726984,0.03485178162372904,0.34856560584375984,0.902320586868882,7.809923369828539
2,22,female,50,15,15,left,same,valid,anti,1,0.472333339321267,0,j,0,change,2.6612043240311323,0.18119469130833632,1.093039971363396,0.5019879198116541,0.49797391264291946,0.0348264435033343,0.34859222690647584,0.9022756838712667,8.044017124719176
2,22,female,51,165,215,left,change,valid,clock,2,0.3695208721965173,1,j,1,change,1.093470398660429,0.1846219669233813,0.9316881089162052,0.5019805428892141,0.44913228166296904,0.03482387761687278,0.3485890195497632,0.9023042293483741,6.156141511151873
2,22,female,52,15,325,left,change,valid,anti,2,0.44143526655716414,1,j,1,change,1.439389614321044,0.18336314038105878,0.9293457761668833,0.5018945857264043,0.29582222518729395,0.03485049867958878,0.3485963964703842,0.9022416858897486,6.421486148066833
2,22,female,53,105,155,left,change,valid,clock,1,0.35343565657058207,0,j,1,change,1.4452898680865474,0.18211628947179215,0.6778732786115143,0.5019337154790264,0.4979181046328449,0.0348703842919349,0.3485976794127055,0.9023452835172066,6.280959333280407
2,22,female,54,105,85,right,same,catch,clock,2,0.8333701110259426,1,f,1,same,2.8813403031344933,0,0.6118976262987417,0.501994655260205,0.4490800017447327,0.03489315652586811,0.3484963269347645,0.9024748607371293,9.588263254723643
2,22,female,55,165,215,right,change,valid,clock,1,0.5682483854161546,0,j,1,change,1.0313499893527478,0.18536145456137088,0.9471889441138046,0.5019446204933047,0.49796268689351564,0.03482323614662164,0.34858549145610596,0.9023840925365221,6.3591938244262565
2,22,female,56,165,165,left,same,valid,anti,2,0.7372706419064343,1,f,1,same,1.5391239810232946,0.18876936873962064,1.0434138208856893,0.5019638646335807,0.4491585819887405,0.03481842511064315,0.3485813218921976,0.9022490628103697,7.076661924054861
2,22,female,57,165,115,right,change,valid,anti,2,0.5534550931552076,1,j,1,change,0.969330611784244,0.18757892691187622,0.7776846218785067,0.501924414144014,0.49800823136138206,0.03485691339301411,0.3484793279421865,0.902376715615901,6.109221407696168
2,22,female,58,135,85,right,change,valid,anti,2,0.8414115962641517,1,f,0,same,1.3046976232217276,0.1864371287683168,0.8727692832708271,0.501941413136592,0.3445923321069131,0.03487968562694732,0.3485271175613889,0.9023969219633727,6.67116252575579
2,22,female,1,105,105,left,same,valid,anti,2,1.7844130151988793,1,f,1,same,1.486655470853293,0.185332268844962,0.8644612666757894,0.5019731659685931,0.40033619515088503,0.03488417592780024,0.3485745864436467,0.902350094553185,7.8517675102448266
2,22,female,2,75,125,right,change,valid,clock,3,0.785146216985595,1,j,1,change,1.094028158027868,0.1842537322647415,1.1273221264000313,0.5018753415843094,0.40035992959201394,0.03486236589924374,0.348607622219788,0.9023157758329035,6.717618845401375
2,22,female,3,75,25,right,change,valid,anti,1,0.40941718476096867,0,j,1,change,1.2098243266482314,0.18311791054569632,0.9833291210052266,0.5019417338717176,0.4492310682544485,0.034819387317838846,0.34854251287470106,0.9023488116108638,6.359047248215575
2,22,female,4,15,65,left,change,valid,clock,1,0.8013940456075943,0,j,1,change,2.4999368150693044,0.18605589448647514,0.8881520877330331,0.5019863161323883,0.4491832786370651,0.03487840268644504,0.3485582289231388,0.9023048708204442,7.949998268028139
2,22,female,5,105,155,left,change,valid,clock,2,0.977381077620521,1,f,0,same,1.2307273130827525,0.18919948647867058,0.6887051643589075,0.5019782977396972,0.4979877042769658,0.03488385519267467,0.3485870951353718,0.9022493835454952,6.702103577101298
2,22,female,6,105,75,right,change,catch,clock,1,0.6094885805250669,0,j,1,change,2.0813311942401924,0,1.1306702862766542,0.5020036358600919,0.44922561574821884,0.034830933804187225,0.3485518142097135,0.9023526604378276,9.088784450219464
2,22,female,7,75,75,left,same,valid,anti,2,2.29613141439404,1,j,0,change,2.1316931123928953,0.1880879291189489,1.2571418216248276,0.5019256970863353,0.4980069484172418,0.034848574267016375,0.34857683159316366,0.9023658106016228,9.510379969158748
2,22,female,8,15,15,left,same,valid,anti,3,0.7054267195908324,1,f,1,same,1.2602949742013152,0.18702401840788063,0.6217406839114119,0.5019385265150049,0.34458687960068346,0.03481136892514769,0.3486441860895866,0.9023042293483741,6.24974982616186
2,22,female,9,165,165,right,same,valid,anti,3,0.7854361620520649,1,f,1,same,1.0674667525381665,0.1859974695537508,1.0298261740863381,0.5019789392117673,0.4979947604606423,0.03477608799948939,0.34857683159316366,0.902407826977651,6.686898139476398
2,22,female,10,135,85,right,change,valid,anti,4,2.521100559621118,1,j,1,change,1.8129379645870358,0.18499896315061176,1.1127206340806879,0.5019875990747096,0.4491011703012191,0.03487840268462605,0.3485848499858548,0.9022930035989702,9.213889010055937
2,22,female,11,165,215,left,change,valid,clock,1,0.3454705064305017,0,j,1,change,1.3117602231286583,0.1839525632896849,0.6115371193827741,0.5019449412284303,0.29579849074616504,0.03481746290344745,0.3485774730652338,0.9023356614470686,5.875446464080596
2,22,female,12,45,45,right,same,valid,clock,2,1.1533982587898208,1,f,1,same,1.2503499226386339,0.18664492240951497,0.8056024186043942,0.5019048492686125,0.49801592901712866,0.03484119734457636,0.34857715232828923,0.9023253979048604,7.014223344938728
2,22,female,13,135,135,right,same,valid,clock,2,2.3533644532490143,1,j,0,change,1.3000190516995644,0.18566988074661112,1.32137876575689,0.5019442997581791,0.4003852677124087,0.03482900938797684,0.3485601533375302,0.9023379065965855,8.683307182684075
2,22,female,14,45,355,right,change,valid,anti,2,0.5214552932939114,1,j,1,change,1.436877291655037,0.18471831546571793,0.559457340870722,0.50191928237291,0.40035319414346304,0.03484632911568042,0.3485992830919713,0.9023241149625392,6.234277857178313
2,22,female,15,75,75,right,same,valid,anti,2,0.44154944846195576,1,j,0,change,1.0880429093031125,0.18371785461502949,0.7224125610373449,0.501945903433807,0.4979248400813958,0.03487262944327085,0.34857009614461276,0.9023042293483741,6.062357432985664
2,22,female,16,135,185,right,change,valid,clock,3,0.7853845236058987,1,j,1,change,0.8769728452334675,0.18272534612034702,0.8508755442871916,0.5019475071148918,0.4003823810890026,0.03487262944145186,0.348554380094356,0.902352339702702,6.218628521357459
2,22,female,17,165,115,left,change,valid,anti,2,1.2094102568698872,1,f,0,same,2.3279342825408094,0.18173248760340538,0.7271677883873053,0.5019741281757888,0.34459938829240855,0.03478218197778915,0.34860537707027106,0.9022657410660031,7.918814419763294
2,22,female,18,165,115,right,change,valid,anti,2,0.5615151810616226,1,j,1,change,1.0037875677717238,0.18073124551840147,0.966959412822689,0.5019956174692197,0.400365061363118,0.03482355688174721,0.3485793974778062,0.9023051915555698,6.249910514741714
2,22,female,19,75,75,right,same,valid,clock,2,0.6494455121373903,1,j,0,change,1.1033250027576287,0.1797169338101533,1.0585563943150191,0.5019163957531418,0.4491842408442608,0.03487391238559212,0.3485652851068153,0.9023526604378276,6.577078238980903
2,22,female,20,75,75,left,same,valid,clock,2,0.3934416607444291,1,f,1,same,2.551525867975215,0.17873564173296191,0.9312868685665308,0.5019513559436746,0.44914735623933666,0.034860762221796904,0.3485659265788854,0.9023590751530719,7.638042716862401
2,22,female,21,165,165,right,same,valid,clock,3,0.4414137772655522,1,j,0,change,1.2708301794318686,0.1777980454667918,0.896944415222606,0.5019577706570999,0.4003519111993228,0.034883855190855684,0.34863039445372124,0.9022679862155201,6.327809516356865
2,22,female,22,45,125,left,same,catch,clock,2,0.4974418121310009,1,f,1,same,1.4404996805478731,0,0.7694609587688319,0.5019587328624766,0.34464493276027497,0.03483863145811483,0.3486040941279498,0.9022962109556829,7.872193241970308
2,22,female,23,105,55,left,change,valid,anti,2,0.5444841158860072,1,f,0,same,1.429181880230317,0.1768960766706189,1.151124563479243,0.5019568084480852,0.3445981053500873,0.034854347508371575,0.34857041687973833,0.9022740801938198,6.796075285647021
2,22,female,24,45,45,right,same,valid,anti,2,0.5854119144332799,1,j,0,change,1.1870328484656056,0.1760224096785315,0.8553206202268484,0.5019561669778341,0.3445538438245421,0.03485210235885461,0.34859511352806294,0.902333095560607,6.280965427258707
2,22,female,25,135,185,left,change,valid,clock,2,1.5454761513774429,1,j,1,change,1.2641707442871848,0.17517032449835518,1.0035402805533522,0.5019250556160841,0.3446009919716744,0.034813293339539086,0.3486371299040911,0.9022590056174522,7.466689353370384
2,22,female,26,105,105,right,same,valid,clock,3,1.0894948797758843,1,f,1,same,1.0949993456997618,0.17433358862931042,1.1960044672068761,0.5019516766788001,0.34466802573115274,0.03481810437369859,0.3485771523301082,0.9023253979030414,7.029716803213887
2,22,female,27,45,355,left,change,valid,anti,2,0.4654686333324207,1,j,1,change,1.084681920001458,0.17344879408189973,1.2409982321059942,0.5020167860238871,0.49795980027192854,0.034842159551772056,0.34859222690647584,0.9022731179866241,6.592599280525974
2,22,female,28,165,215,right,change,valid,clock,1,0.31349059217973263,0,j,1,change,0.8441208506428666,0.17256704360721192,0.9888679056457477,0.5019090188307018,0.40037115534141776,0.03489091137635114,0.3485938305839227,0.9023045500853186,5.8597945623751
2,22,female,29,15,45,left,same,catch,clock,1,1.2333871741648181,0,j,0,change,1.7994276150875521,0,1.0311793579639925,0.5020466144433158,0.4490809639519284,0.034848253530071815,0.3485457202314137,0.90236196177284,9.416663566222269
2,22,female,30,15,15,right,same,valid,clock,2,0.37625247287178354,1,j,0,change,1.2920388269794785,0.17486920557912078,0.6195481347294844,0.5018779074689519,0.4980338902150834,0.034854026771427016,0.3485431543449522,0.9023359821821941,6.109609497882047
2,22,female,31,15,325,right,change,valid,anti,1,0.27346309871791163,0,j,1,change,0.8042434614835656,0.17400954885596176,0.8255919497914874,0.5019237726719439,0.4004157376020885,0.03480431273965223,0.34859607573343965,0.9023667728088185,5.6103083809521195
2,22,female,32,135,135,left,same,valid,clock,2,0.7933115062005527,1,f,1,same,2.2840371129677806,0.1762280724328978,1.033814843134678,0.5019157542810717,0.4004231145227095,0.034813293339539086,0.34858741587049735,0.9023366236524453,7.825510482924074
2,22,female,33,105,105,right,same,valid,anti,2,0.47344629216786416,1,f,1,same,1.4948441737724352,0.17542814653026745,0.727323345196055,0.5019173579585186,0.40033619515088503,0.03484985720933764,0.34865412889485015,0.9022766460784624,6.405427553505433
2,22,female,34,45,95,left,change,valid,clock,2,0.6414595141759492,1,j,1,change,1.5548506141440157,0.1746434953229956,0.7925122328579164,0.5019455826986814,0.2958302435799851,0.03477608799948939,0.3486647131740028,0.9022596470895223,6.592861642320713
2,22,female,35,75,185,left,change,catch,clock,1,1.0813465895535046,0,j,1,change,3.1415413017766696,0,0.7184925294241111,0.5019462241707515,0.4003897580114426,0.03480495421172236,0.3486105088413751,0.9023571507368615,10.258862247870638
2,22,female,36,165,165,left,same,valid,clock,2,1.9121774361155985,1,f,1,same,1.4700615684232616,0.17381525369850875,0.5661267188224883,0.5020267288291507,0.29572600448045705,0.0348418388148275,0.34863103592579137,0.9022545153165993,7.560481770666229
2,22,female,37,15,15,left,same,valid,clock,2,0.5372893728708732,1,j,0,change,0.9784103184520063,0.17299159402572184,1.0908653833812423,0.5019863161323883,0.40033523294368933,0.03488770401963848,0.3484812523565779,0.902432202889031,6.312178783206036
2,22,female,38,75,15,right,same,catch,clock,2,0.7851176715103065,1,j,0,change,0.962329593126924,0,0.8853774032722868,0.5019574499201553,0.2958312057871808,0.03478121977059345,0.3485745864436467,0.9023831303293264,7.747245201153419
2,22,female,39,45,15,right,change,catch,clock,1,0.6322871148931881,0,j,1,change,1.2662879205799982,0,1.0276714717147115,0.5019356398934178,0.34460323712119134,0.034796294348780066,0.3486412994679995,0.9022769668154069,8.090514819270538
2,22,female,40,105,105,left,same,valid,clock,2,0.43994127971018315,1,j,0,change,2.4182444724410743,0.17216675465502052,1.2120357992353092,0.5019875990747096,0.2957567951070814,0.03486717693522223,0.34855021053044766,0.9022788912297983,7.685022156421837
2,22,female,41,15,325,left,change,valid,anti,2,1.505381303419199,1,j,1,change,2.232942634498613,0.1713351154705654,0.6427155151395709,0.5019911271683668,0.2957863027895655,0.034848574265197385,0.3485973586775799,0.9023170587770437,7.9816382024419
2,22,female,42,15,65,right,change,valid,clock,3,0.3374219650067971,1,j,1,change,1.2173160709116928,0.17049111995808608,1.0553025307326607,0.5020100505735172,0.29572311785886995,0.03480527494866692,0.34862558341774275,0.9023000597844657,6.218935144677744
2,22,female,43,45,45,left,same,valid,anti,1,1.65737345693924,0,f,1,same,3.262883631959994,0.16963433145023388,0.8401212765802484,0.5019985040889878,0.34458206856470497,0.03476037195105164,0.34861403693321336,0.9023103233266738,9.416533989002346
2,22,female,44,105,155,left,same,catch,anti,1,1.561432751990651,0,j,0,change,0.8382356714537309,0,1.2251490779490268,0.5019911271683668,0.49796653572229843,0.03489828829879116,0.34858934028488875,0.9022750424028345,8.93318851047843
2,22,female,45,75,25,left,change,valid,anti,1,0.39216737784590805,0,j,1,change,1.5194295266719564,0.1719320841685293,1.0467879603511392,0.5019593743345467,0.40037115534141776,0.03484055587432522,0.3485239102046762,0.9024145624262019,6.686810257897378
2,22,female,46,135,135,left,same,valid,anti,2,0.417483687382628,1,f,1,same,1.1235149937510869,0.174036332820588,0.7418850662888872,0.5019183201657142,0.3446292167118372,0.034780257563397754,0.3486361676968954,0.9023298882038944,5.937774389381957
2,22,female,47,15,165,right,change,catch,clock,2,0.5454290032303106,1,f,0,same,1.6104498253916972,0,0.9429013493991079,0.5019513559418556,0.44914062079078576,0.03485274382910575,0.3486095466341794,0.9022365541186446,8.355810704362739
2,22,female,48,105,155,right,change,valid,clock,2,0.3599632693494641,1,j,1,change,1.0044925448200956,0.1732628944506705,1.1467474835080793,0.501977656269446,0.49793221700201684,0.03488000636389188,0.3485575874510687,0.9022926828656637,6.328170344007958
2,22,female,49,135,85,left,change,valid,anti,2,0.6174001678082277,1,f,0,same,1.443842708651573,0.17248941923822542,0.9653076240156224,0.5019282629709778,0.4979819310356106,0.03486204516411817,0.3485498897953221,0.9023783192933479,6.842562075185924
2,22,female,50,15,15,right,same,valid,anti,2,0.5533761921742553,1,j,0,change,0.8528047694690031,0.17171090527826377,0.8998618270634324,0.5019619402191893,0.4979610832142498,0.034818745847587707,0.3485659265807044,0.9023385480668367,6.109199276934305
2,22,female,51,105,85,left,same,catch,anti,1,0.37730801402904035,0,j,0,change,3.6434294727860106,0,0.954965501670813,0.5019962589394709,0.4491374134340731,0.03484664985080599,0.34859318911367154,0.9024059025632596,10.24343357820544
2,22,female,52,45,95,right,change,valid,clock,2,0.41626649543650274,1,f,0,same,1.3001011600372294,0.17092241672078928,1.2664931914223416,0.5019366021006135,0.29577924660588906,0.034882251513408846,0.34853224933249294,0.902378960763599,6.593025217523973
2,22,female,53,105,55,right,change,valid,anti,1,0.4893932707091153,0,j,1,change,1.6751531192185212,0.17011902171017895,0.836464248233824,0.5019965796745964,0.29572055197240843,0.03486108295692247,0.3486201309115131,0.9023363029173197,6.608531184489038
2,22,female,54,105,85,right,same,catch,clock,1,0.4893525372754084,0,j,0,change,1.5637090131858713,0,0.5569665074963268,0.5019388472501305,0.40035511855785444,0.034871346499130595,0.3485697754094872,0.9023241149607202,7.8252558187869
2,22,female,55,45,45,left,same,valid,clock,2,0.47238401555841847,1,f,1,same,1.3478410639181675,0.17226014241693055,1.1346397111847182,0.5019789392117673,0.29578052954639134,0.034866535463152104,0.3485258346172486,0.9023404724812281,6.577737030091157
2,22,female,56,135,135,right,same,valid,anti,1,0.8814490325330553,0,j,0,change,1.3824279178606957,0.17150185941088142,0.7399388421181357,0.5019135091297358,0.4004147753948928,0.0348703842919349,0.34853096639017167,0.9023635654521058,6.717792363411718
2,22,female,57,75,125,left,change,valid,clock,2,0.809416607438834,1,f,0,same,1.5983875975343835,0.17350325332055178,0.911519607214359,0.5020655378484662,0.4490751907105732,0.03484408396616345,0.3486329603383638,0.9024010915291001,7.076618304001386
2,22,female,58,165,165,left,same,valid,anti,2,1.0013708243423025,1,j,0,change,1.2296445093907096,0.17277517379111318,0.9339059962185274,0.5020126164581598,0.44917590171644406,0.03488770401963848,0.3485415506656864,0.9023773570861522,6.920669234263187
2,22,female,1,15,15,left,same,valid,clock,2,0.7682123347240122,1,f,1,same,1.2958722599560133,0.1720434813457457,0.5512628647084057,0.5019670719902933,0.40036474062617344,0.03488674181244278,0.34856047407447477,0.9023032671429974,6.3290251046237245
2,22,female,2,45,95,left,change,valid,clock,1,0.4974370010968414,0,j,1,change,1.3471604627829947,0.17130376002333586,0.8936578365992318,0.5019651475777209,0.29570900548787904,0.0348626866361883,0.34861692355480045,0.9022897962440766,6.343251336184039
2,22,female,3,165,215,left,change,valid,clock,1,0.6414479676914198,0,j,1,change,1.1331681758365448,0.1732598761658245,0.8704471568689769,0.5020350679569674,0.2957523048080475,0.034895401675385074,0.3485800389498763,0.9023786400284735,6.249849574962354
2,22,female,4,135,135,left,same,valid,clock,1,1.3931334337448789,0,f,1,same,4.515137762393351,0.1751018904072147,0.9130107074397529,0.5020947247958247,0.2956548011570703,0.03489892977086129,0.3486050563333265,0.9023382273317111,10.43067907443401
2,22,female,5,165,165,left,same,valid,clock,1,1.609396850119083,0,j,0,change,1.7378364196665643,0.1770537095868699,0.7972786859572807,0.5020164652869425,0.4003105362953647,0.034796935819031205,0.3486252626826172,0.9023128892131353,7.856588488411944
2,22,female,6,135,185,right,change,valid,clock,1,0.6574523579201923,0,j,1,change,1.396465236100994,0.17905818431072618,1.116439243680361,0.5019670719921123,0.4003233657240344,0.03484568764542928,0.34859062322721,0.9022772875505325,6.889519383983497
2,22,female,7,75,125,right,change,valid,clock,2,0.5453972503983096,1,f,0,same,1.5471067716280231,0.18113766420671995,0.8127410328706901,0.5020158238166914,0.4979309340596956,0.03485595118581841,0.34858452924891026,0.9023382273335301,6.717816418587972
2,22,female,8,105,85,left,same,catch,anti,2,0.36940252072599833,1,f,1,same,1.5552072722330195,0,0.674509081951328,0.5019600158066169,0.34452690202670055,0.03489091137635114,0.3485707376148639,0.9023481701387936,7.763026359341893
2,22,female,9,135,85,left,change,valid,anti,2,0.9204517754642438,1,f,0,same,1.5793875359540834,0.18040074234231956,1.0970716189967789,0.5019988248241134,0.44913901711151993,0.03486236589924374,0.3486361676968954,0.9022939658061659,7.373203238659698
2,22,female,10,165,165,left,same,valid,anti,2,0.769422470486461,1,f,1,same,1.3337585219469474,0.1796519266885117,0.8441375288985,0.5019911271665478,0.3445676354585885,0.03486685620009666,0.3485819633642677,0.9023507360234362,6.608510657404622
2,22,female,11,135,135,right,same,valid,clock,2,7.2733707268380385,1,j,0,change,1.6756467314480687,0.17892921569322623,0.8885982310785039,0.5019847124531225,0.29581003723069443,0.03481553848905605,0.3485335322748142,0.9024456737879518,13.44124218367142
2,22,female,12,75,25,left,change,valid,anti,2,0.5214129561827576,1,j,1,change,1.4270509122998192,0.17823668276271404,1.20913153755464,0.5020280117732909,0.34456410736675025,0.034848574267016375,0.348583246306589,0.9022756838730857,6.8111498631096765
2,22,female,13,45,45,right,same,valid,clock,2,0.473428651705035,1,f,1,same,1.8079399403177376,0.1775698780115328,0.7228083488771517,0.502030898393059,0.44918071275242255,0.03482323614662164,0.34857490717877226,0.9023549055873445,6.764801631388764
2,22,female,14,75,75,right,same,valid,anti,2,0.6730638469307451,1,f,1,same,1.8790294024820469,0.17692471359203144,0.6497604745854915,0.5018743793771137,0.40038077741155575,0.034849215737267514,0.34860056603429257,0.9022881925648107,6.920294294241103
2,22,female,15,75,75,left,same,valid,clock,2,0.35339877196747693,1,f,1,same,2.9270980604469514,0.17629740843029185,0.7320445745644975,0.5019446204933047,0.2957770014545531,0.034849215737267514,0.3486214138556534,0.9023571507386805,7.622637781636513
2,22,female,16,165,115,right,change,valid,anti,2,0.4974819040926377,1,f,0,same,1.487423953567486,0.17568443950441043,0.9424407729475206,0.5020148616094957,0.34461478360572073,0.03481104819002212,0.34860473559820093,0.9023215490760776,6.577291848951063
2,22,female,17,45,355,right,change,valid,anti,2,1.5453417631215416,1,j,1,change,1.47365348742278,0.1750824985961511,0.8038383723051084,0.5019154335459461,0.4980050240046694,0.03477705020668509,0.3485877366056229,0.9023327748254815,7.638139579041308
2,22,female,18,105,155,left,change,valid,clock,2,0.6894062925766775,1,f,0,same,2.7844078834277752,0.17448845360622434,1.162462570144271,0.501962902426385,0.40045422588445945,0.03478410639218055,0.34862462121054705,0.9023558677963592,8.340191196961314
2,22,female,19,15,65,left,change,valid,clock,2,0.585485042169239,1,j,1,change,1.3791105486125161,0.17385836344523198,0.6943517161926138,0.5019321118015796,0.2957256837453315,0.03489572241232963,0.34860730148466246,0.9023116062708141,6.2652670188763295
2,22,female,20,45,125,left,same,catch,clock,3,0.873329287787783,1,f,1,same,5.131281929237957,0,0.7830858109082328,0.5019815050982288,0.295757115842207,0.03483253747981507,0.34860056603429257,0.9023542641170934,11.896975205847411
2,22,female,21,15,45,left,same,catch,clock,1,0.4081432225993922,0,j,0,change,2.237471422449744,0,1.4451487443839142,0.5020187104382785,0.3445618622172333,0.034854347508371575,0.3485466824386094,0.9023953182859259,9.29170269597671
2,22,female,22,165,165,right,same,valid,anti,1,0.4163200582970603,0,j,0,change,2.777458182481496,0.17322981540706667,1.184271634905599,0.5019555255075829,0.400321441309643,0.034843442494093324,0.34857394497157657,0.9023237942255946,8.0908567235183
2,22,female,23,75,125,left,change,valid,clock,2,0.7373123375473369,1,f,0,same,4.393502279788663,0.17486934519414887,0.8631151389799925,0.501953280356247,0.34457469164408394,0.034831896009563934,0.3486714486225537,0.9023225112832733,9.650509713159408
2,22,female,24,45,45,left,same,valid,anti,2,0.9374113165813469,1,f,1,same,1.4631477898747107,0.17425253654067502,0.6499359170102252,0.5020103713086428,0.29574492788560747,0.03484023513919965,0.3485457202314137,0.9023423968956195,6.655365010046808
2,22,female,25,45,15,right,change,catch,clock,2,1.9214492634619091,1,j,1,change,1.1212688817104208,0,1.0491014268882282,0.5019189616377844,0.4491762224533886,0.03485146088678448,0.34859126469928015,0.9023273223192518,9.353940494549533
2,22,female,26,15,15,right,same,valid,clock,2,0.6003812905892119,1,f,1,same,3.391680821801856,0.17363918843037923,0.8595604253223428,0.5019888820188498,0.3445474291111168,0.03487936489182175,0.34858741587231634,0.9023122477410652,8.511914368702492
2,22,female,27,45,355,left,change,valid,anti,2,0.6253903353353962,1,f,0,same,2.527244251774391,0.17302599861100576,0.7101784188507736,0.5019503937346599,0.34460708594997413,0.034848574265197385,0.3485813218921976,0.9024193734621804,7.51341060069899
2,22,female,28,105,75,right,change,catch,clock,3,1.0173861195871723,1,j,1,change,1.202076635303456,0,0.581138432089574,0.5018817562977347,0.29576994526905764,0.03481201039539883,0.34862847003932984,0.9024023744696024,8.012666493896177
2,22,female,29,15,65,right,change,valid,clock,2,1.2404882623559388,1,j,1,change,1.1524318821539055,0.17240973516819297,0.5070430350315291,0.5019401301942708,0.4492089374925854,0.03488545887012151,0.34853994698823954,0.9023196246616862,6.6711509792694415
2,22,female,30,105,105,right,same,valid,clock,3,0.7851782905545406,1,f,1,same,1.000268455773039,0.1717872026757623,1.2794384046355844,0.5019908064332412,0.29577283189246373,0.034853385301175877,0.348592868378546,0.9023860169509135,6.670879636876634
2,22,female,31,75,15,right,same,catch,clock,2,0.9934935557776043,1,j,0,change,0.909061168145854,0,1.1326774502285843,0.5019779770045716,0.4491268291549204,0.03490438227709092,0.3485505312673922,0.9023340577678027,8.293430499141323
2,22,female,32,15,325,left,change,valid,anti,2,2.1115990213711484,1,j,1,change,1.4680656302207353,0.1711552099204589,1.1147261943551712,0.5019600158047979,0.4491649967039848,0.03482708497540443,0.34862462121236604,0.9022910791845788,8.46524700496957
2,22,female,33,135,85,right,change,valid,anti,2,0.6574741679469298,1,j,1,change,0.8773070518236636,0.17051053866600924,0.7312552440289437,0.5019696378767549,0.40032079983757285,0.0347978980262269,0.3486871646709915,0.9023164173049736,5.9846604948561435
2,22,female,34,45,95,right,change,valid,clock,1,0.24948297406626807,0,j,1,change,0.8358859617837879,0.16985048119135265,0.918327542985935,0.5019840709828713,0.40033715735808073,0.034854026773246005,0.34852647609113774,0.9024119965415593,5.71954454248953
2,22,female,35,105,55,right,change,valid,anti,2,0.7934189526567934,1,j,1,change,1.1323753172073339,0.17161823864805736,0.9448231976566603,0.5019481485851429,0.29575743657915154,0.03485563045251183,0.3485174954912509,0.9024315614187799,6.483518355062188
2,22,female,36,15,15,right,same,valid,anti,2,0.5454280410231149,1,j,0,change,1.2664777961090294,0.17099759590686753,0.975875223552066,0.5020151823446213,0.4491585819887405,0.034820670260160114,0.3485761901229125,0.9023552263242891,6.5461240374716
2,22,female,37,45,45,left,same,valid,clock,2,0.6414043476361257,1,f,1,same,1.6807974259027105,0.17036360337379097,0.9463091661127692,0.5020520669495454,0.3445368448337831,0.03486910134961363,0.3485707376148639,0.9023000597862847,6.920692968704316
2,22,female,38,75,75,right,same,valid,clock,3,0.5853182596110855,1,f,1,same,1.5120407385638828,0.1697164206152213,0.7960948505242413,0.5019920893755625,0.449178146865961,0.03485242309398018,0.3485421921377565,0.9023276430543774,6.6554397414620325
2,22,female,39,105,55,left,change,valid,anti,3,0.3054202407311095,1,j,1,change,1.3160628924197226,0.16908901252967246,0.7139826648763119,0.5019856746621372,0.49793382068128267,0.034945436444104416,0.34853994698823954,0.9023552263224701,6.140649335820854
2,22,female,40,75,25,right,change,valid,anti,2,0.6734628421290836,1,j,1,change,1.4296161563543137,0.16848735210665905,0.6635851450628252,0.5019202445801056,0.40046545163386327,0.034843121758967754,0.3485412299323798,0.9022974938998232,6.483731965032348
2,22,female,41,135,135,left,same,valid,anti,1,0.449349740460093,0,j,0,change,3.2409693658919423,0.1679080671760782,0.8033656078969216,0.502033143544395,0.2957048359239707,0.03479244551817828,0.3486300737167767,0.9022801741721196,8.106233434000387
2,22,female,42,105,155,right,change,valid,clock,2,0.45743805310848984,1,f,0,same,1.3814750121237012,0.1695890701637916,0.9020287173916586,0.5019802221540886,0.3445378070409788,0.03483253747981507,0.348619489441262,0.9022660618029477,6.390247454000928
2,22,female,43,165,215,right,change,valid,clock,2,0.5533761921742553,1,j,1,change,0.9884012352176796,0.16897989727920693,0.8262407980928401,0.5020241629445081,0.44913196092784347,0.03487872341975162,0.34855213494483905,0.9023096818564227,6.124815576979017
2,22,female,44,15,15,left,same,valid,anti,1,1.2414097359960579,0,j,0,change,2.290620533756737,0.1683951935822628,0.8812787218812446,0.5019439790212346,0.44923299267065886,0.03481297260441352,0.3485547008313006,0.9022987768421444,8.168403236608356
2,22,female,45,165,115,left,change,valid,anti,1,0.24142609351656574,0,j,1,change,1.524816282595566,0.17008549615603774,1.128609238727222,0.5019972211448476,0.44919193850182637,0.03484600838055485,0.34860537706845207,0.9023520189675764,6.655270072280473
2,22,female,46,105,105,right,same,valid,anti,2,0.5134333729347418,1,f,1,same,1.4424994675791822,0.17172984662762564,0.6545702270050242,0.5020315398651292,0.3445387692463555,0.034819387317838846,0.348626866360064,0.902320586868882,6.265499872988585
2,22,female,47,105,155,left,same,catch,anti,1,0.29747978723753477,0,j,0,change,0.6821983994013863,0,0.8310236087127123,0.5019738074406632,0.44921118264210236,0.03488513813499594,0.3485518142097135,0.902335340710124,7.0766317749003065
2,22,female,48,135,185,left,change,valid,clock,2,0.47942833353590686,1,f,0,same,3.5499725450245023,0.17115090371682928,0.9379382853221614,0.5019908064332412,0.4003801359413046,0.03486332810643944,0.3485591911303345,0.902342717630745,8.683760702950167
2,22,female,49,15,165,right,change,catch,clock,1,0.6973332751731505,0,j,1,change,1.531752191907799,0,0.5392352763064991,0.5020129371951043,0.29576898306368093,0.03481008598282642,0.3485880573425675,0.902352339702702,7.872195487121644
2,22,female,50,75,75,left,same,valid,anti,2,0.5685274254665273,1,j,0,change,1.4209639903619973,0.17055971783897328,1.3323581899203418,0.5020321813371993,0.29572889110022516,0.03485723412813968,0.3485563045087474,0.9023577922089316,6.936561046264615
2,22,female,51,105,85,right,same,catch,clock,3,0.8014065542993194,1,f,1,same,1.4666091694489296,0,0.8714125712995155,0.5019834295108012,0.3445560889740591,0.03486942208655819,0.34861499914040905,0.9023106440617994,8.293245755385215
2,22,female,52,105,105,left,same,valid,clock,1,0.5764261833228375,0,j,0,change,1.0874829047879757,0.16995339129949394,1.3680127729785454,0.5020004285033792,0.40039905934645503,0.034831254537493805,0.3485649643716897,0.9023840925365221,6.749387074094557
2,22,female,53,105,105,left,same,valid,anti,3,0.9693707037458807,1,f,1,same,2.2544912618759554,0.17157653306453424,0.9016775118107034,0.5020642549043259,0.3445570511812548,0.03481233113234339,0.34854155066750536,0.9023741497294395,7.77864907410185
2,22,female,54,45,45,right,same,valid,anti,2,0.5934716816027503,1,j,0,change,1.0657463262941747,0.1710066342335999,0.8581854314161319,0.501912546924359,0.3446362728973327,0.03481906658089429,0.3485976794127055,0.9022564397309907,6.17186429544563
2,22,female,55,135,135,right,same,valid,anti,2,0.617490936008835,1,f,1,same,1.362701389940412,0.17042394357925789,1.0475901203135436,0.5020334642795206,0.4003467794300377,0.03489091137817013,0.3485441165539669,0.902279853436994,6.733325592911569
2,22,female,56,15,325,right,change,valid,anti,2,0.45726838392874924,1,f,0,same,1.7479937982552656,0.16982667057792356,0.9381275193791225,0.5019914479034924,0.4491438281474984,0.034876478272053646,0.3485194199038233,0.9023796022356692,6.904829060707925
2,22,female,57,75,185,left,change,catch,clock,2,0.5694068827306182,1,f,0,same,1.089260742721308,0,0.5181937320539873,0.5020045980672876,0.4491457525618898,0.03482451908894291,0.34863969578873366,0.9022301394034002,7.435253727589952
2,22,female,58,165,165,right,same,valid,clock,1,0.28816915087190864,0,j,0,change,1.2669710876016325,0.16924260194999802,1.3235046019144647,0.501909660302772,0.4491470355023921,0.03488513813499594,0.34860441486307536,0.9022513079598866,6.65531689969248
2,22,female,1,75,125,left,change,valid,clock,2,0.3600482643068972,1,f,0,same,2.29726585653043,0.17086739922423455,0.876960657276868,0.5020443692919798,0.44914831844653236,0.03488000636207289,0.34856656805095554,0.9023141721554566,7.304156542111741
2,22,female,2,75,25,left,change,valid,anti,2,0.58540517898291,1,j,1,change,2.019846162333124,0.1702926292448496,0.805002001390676,0.5019333947439009,0.344587200337628,0.03484697058775055,0.3486393750536081,0.9023241149625392,7.060963836409428
2,22,female,3,105,105,left,same,valid,clock,2,1.073385288240388,1,f,1,same,1.4014260550284234,0.16970580326655504,0.6849236905654834,0.5019202445801056,0.4004096436237887,0.03482740571053,0.3486403372608038,0.902224366162045,6.873793071596083
2,22,female,4,105,105,left,same,valid,anti,2,0.5693343964649102,1,f,1,same,2.346072206584722,0.16913762633084267,1.31574600555723,0.5019972211466666,0.4491393378484645,0.03478282344985928,0.3486820328998874,0.9023808851798094,7.996986367448699
2,22,female,5,75,185,left,change,catch,clock,1,0.64942723020431,0,j,1,change,0.7681501120005123,0,0.7157970666794427,0.5019311495943839,0.40033715735808073,0.034877761214374914,0.34857490717877226,0.902340472483047,7.341833684431549
2,22,female,6,75,75,right,same,valid,clock,1,0.5200232084353047,0,j,0,change,1.2628736891529115,0.16859243510316363,1.0244416633104265,0.5019253763512097,0.44918552378840104,0.034779616091327625,0.34868652319892135,0.9023504152883106,6.577267152302738
2,22,female,7,165,165,right,same,valid,anti,2,1.473325054075758,1,j,0,change,2.721021209610626,0.17016544679838608,0.9278264512013266,0.5019571291832108,0.3445637866298057,0.03485242309398018,0.34850274164818984,0.9023664520736929,8.776919667256152
2,22,female,8,105,55,right,change,valid,anti,2,0.4251749292452587,1,j,1,change,1.2192183542920247,0.16959039354928068,0.6383506231250067,0.5020193519085296,0.44912939504138194,0.03484568764361029,0.34857779380035936,0.9023270015823073,6.047123129148531
2,22,female,9,45,355,left,change,valid,anti,1,0.449359362530231,0,j,1,change,2.691623859143874,0.16903732353543516,0.7851362741803314,0.5019388472501305,0.4492153522060107,0.034773522113027866,0.34864835565167596,0.9023263601120561,7.6850625691186
2,22,female,10,105,155,left,same,catch,anti,2,0.3614620672306046,1,j,0,change,0.9487217399782821,0,0.9490912274941365,0.5020219177931722,0.44917109068228456,0.03482195320248138,0.34862943224652554,0.9023626032449101,7.529046465620922
2,22,female,11,165,115,right,change,valid,anti,2,0.5204347123253683,1,f,0,same,1.3551984199275466,0.17060257669948342,0.7048625455117872,0.5019539218283171,0.40031598880341335,0.03484119734457636,0.3486412994661805,0.902354584852219,6.296793412857369
2,22,female,12,135,85,right,change,valid,anti,2,0.401353889496022,1,j,1,change,3.249037792927993,0.17004209720921837,0.8747552786680899,0.5020251251517038,0.4979309340596956,0.03484600838055485,0.3485954342631885,0.9022391200032871,8.34011101303804
2,22,female,13,15,15,left,same,valid,anti,2,0.32143008346793067,1,f,1,same,1.80030931750116,0.16948008041652352,0.8662990821812855,0.5020430863496586,0.44916275155264884,0.03484953647239308,0.3485649643735087,0.9023103233284928,6.748993531402448
2,22,female,14,75,75,right,same,valid,anti,2,0.3293888188964047,1,j,0,change,1.4192355457253143,0.16894138871660225,0.6364265297161182,0.501960657276868,0.44914094152591133,0.034888345491708606,0.34854828611787525,0.9023914694571431,6.140480308111364
2,22,female,15,135,185,right,change,valid,clock,1,0.4252926392437075,0,j,1,change,1.216894303477602,0.16842368772977723,0.7499390602188214,0.5019103017730231,0.2958263947512023,0.034888024756583036,0.3485890195497632,0.9023725460519927,6.000325546727254
2,22,female,16,105,155,right,change,valid,clock,1,0.34541277400421677,0,j,1,change,1.5591285867867555,0.1699222030286,0.7847712769653299,0.5019731659685931,0.34460868962742097,0.034837027780667995,0.3486243004754215,0.9022602885579545,6.343311634493148
2,22,female,17,75,75,left,same,valid,clock,1,0.3054869537554623,0,j,0,change,0.7364588598738919,0.17140730676451643,0.5376899717484775,0.5020097298383916,0.4490841713086411,0.034849215737267514,0.3486621472875413,0.9023369443893898,5.345000949377209
2,22,female,18,75,125,right,change,valid,clock,2,0.43346466390721616,1,j,1,change,1.0459396144506172,0.17276069263125854,0.9972820857565239,0.5019706000821316,0.4491508843329939,0.034848253530071815,0.34857490717877226,0.9023270015841263,6.234001703747708
2,22,female,19,165,165,right,same,valid,clock,2,0.40941044931241777,1,f,1,same,1.389355488043293,0.17227327554666022,0.9910081749112578,0.5019561669778341,0.4003442135417572,0.03480944451075629,0.3486518837453332,0.9022971731646976,6.499531725892666
2,22,female,20,45,45,right,same,valid,anti,2,0.4094518242163758,1,f,1,same,1.2787112968235306,0.17177904288908913,0.8038922559007915,0.5019763733253058,0.344589445487145,0.03488738328451291,0.3484831767727883,0.9024145624262019,6.140479987376239
2,22,female,21,105,85,right,same,catch,clock,2,0.48127673332055565,1,f,1,same,1.3923299908401532,0,0.8484430848111515,0.5019394887203816,0.2957731526275893,0.03488064783596201,0.3485344944820099,0.9024001293200854,7.8405760797886614
2,22,female,22,165,215,right,change,valid,clock,1,1.6963213540693687,0,j,1,change,1.0806351977917075,0.17127594930542234,1.1515472931187105,0.5020594438701664,0.4979190668382216,0.03485659265788854,0.34862943224652554,0.9023805644428649,7.747556314770918
2,22,female,23,45,95,right,change,valid,clock,2,0.2734255726409174,1,f,0,same,1.9836222734247713,0.17261279612143754,1.1930671697500657,0.5019747696460399,0.40033234632210224,0.034860441486671334,0.34857394497339556,0.9023250771679159,7.154696276129471
2,22,female,24,75,15,right,same,catch,clock,3,0.4734260858185735,1,j,0,change,0.9482974066595489,0,0.771112426840773,0.5020174274959572,0.4492182388275978,0.034791804047927144,0.3485851707209804,0.9023379065965855,7.451049318886362
2,22,female,25,105,155,left,change,valid,clock,2,0.2884267016306694,1,j,1,change,1.3418878887641768,0.1721327598453139,0.7542856702984864,0.5019507144716044,0.2957567951070814,0.03489828829879116,0.34854379581702233,0.9023494530811149,6.0004182393404335
2,22,female,26,105,105,right,same,valid,clock,3,0.7133963600354036,1,f,1,same,0.9271368694662669,0.1716453670267909,0.6340255023369537,0.5019901649611711,0.40033138411490654,0.03485723412995867,0.34858837807951204,0.9023404724812281,5.984427320008763
2,22,female,27,135,135,left,same,valid,clock,2,0.49730421652020596,1,j,0,change,2.0656821791544644,0.17114863484475124,0.7845996833711979,0.5020511047423497,0.44910662280744873,0.0348684598775435,0.3485919061695313,0.9022590056174522,7.107911523136863
2,22,female,28,165,215,left,change,valid,clock,3,0.8414215390694153,1,j,1,change,1.319594833847077,0.17064054121772,0.6097977697318129,0.5019410923996475,0.40035415634883975,0.03483895219505939,0.34860345265587966,0.9022837022657768,6.483764359338238
2,22,female,29,15,325,right,change,valid,anti,2,0.5214921778988355,1,j,1,change,1.1544714404099068,0.17011901001661783,1.0605417482402117,0.5020379545785545,0.4491601856661873,0.03488994916915544,0.3485954342631885,0.9022875510927406,6.499545196791587
2,22,female,30,75,25,right,change,valid,anti,2,0.8734296780585282,1,j,1,change,1.1249717752580182,0.1695910557586376,0.8579022218000318,0.5020302569228079,0.2957731526275893,0.03488545887012151,0.3485822840993933,0.9023363029173197,6.468066913163057
2,22,female,31,15,45,left,same,catch,clock,2,0.361401127449426,1,j,0,change,1.697565808548461,0,1.1293796458576253,0.5019651475777209,0.49794280127935053,0.03488032709901745,0.3485700961427938,0.9023016634637315,8.496189018524092
2,22,female,32,15,65,right,change,valid,clock,2,0.7283997341728536,1,f,0,same,1.343567260839336,0.16908359512418863,1.2143297008933587,0.501926659293531,0.4491839201091352,0.034848895002141944,0.34852070284796355,0.9023170587770437,7.061056849759552
2,22,female,33,135,135,right,same,valid,clock,2,0.5293864454542927,1,f,1,same,1.9077932999589393,0.16859608411946297,1.0080055628386617,0.5019757318550546,0.4003640991559223,0.03487262944145186,0.34864097873105493,0.9022368748537701,7.154725783813774
2,22,female,34,75,75,left,same,valid,anti,2,0.4494482063182659,1,f,1,same,1.5089777127177513,0.16812628107897415,0.6295143548468332,0.5019398094573262,0.44924069032640546,0.03483927293018496,0.34856945467254263,0.9023779985582223,6.3434582107056485
2,22,female,35,15,65,left,change,valid,clock,2,0.49738055161287775,1,f,0,same,1.4143141772874515,0.16767210295407348,0.6322964162282005,0.5019888820188498,0.29570515666091524,0.03478378565705498,0.3486069807477179,0.9023927523994644,6.156103664341572
2,22,female,36,45,95,left,change,valid,clock,2,0.42503797510471486,1,f,0,same,1.2622851391606673,0.16723160609961701,0.8377940184072941,0.501941413136592,0.40035960885688837,0.03487006355680933,0.34856464363656414,0.9023462457244023,6.2341819572066015
2,22,female,37,165,165,left,same,valid,clock,2,0.5373794996012293,1,j,0,change,0.7908065604569856,0.16680296897592567,0.8696825229835667,0.5019420546068432,0.2958581475850224,0.03484472543823358,0.3485668887860811,0.9023382273317111,5.797252706368454
2,22,female,38,165,115,left,change,valid,anti,1,0.2974688822232565,0,j,1,change,1.2897616035770625,0.166384476512895,0.815032368645916,0.502047897383818,0.4003076496755966,0.03490117492037825,0.34851140151113214,0.9023193039265607,6.109302874561763
2,22,female,39,45,45,left,same,valid,clock,2,0.4734376323031029,1,j,0,change,2.239497830543769,0.16761507462271658,0.7900258897843742,0.5019975418799731,0.40037789078996866,0.03483895219505939,0.3486640717001137,0.9023138514185121,7.216949790752551
2,22,female,40,45,125,left,same,catch,clock,2,0.4093767720642063,1,f,1,same,1.4141897318386327,0,0.7120037256663636,0.5019792599468929,0.4490876994004793,0.03486749767216679,0.34864001652385923,0.9023417554253683,7.794287825643551
2,22,female,41,45,45,right,same,valid,clock,2,0.9844164149963035,1,j,0,change,1.1607838395393628,0.16718415716781343,1.2547286062890635,0.5020379545785545,0.2957349850785249,0.03484697058593156,0.3486204516466387,0.9023712631096714,7.014351639216329
2,22,female,42,15,15,right,same,valid,clock,2,0.4093956954711757,1,j,0,change,0.9882909021398518,0.16676464865975132,1.1507313415222598,0.5019208860521758,0.40041605833903304,0.03480527494684793,0.34861115031162626,0.9023452835172066,6.265560812769763
2,22,female,43,105,85,left,same,catch,anti,2,0.48142459247355873,1,j,0,change,0.8385711609862483,0,1.0456602536633,0.502047897385637,0.2957808502833359,0.03478154050571902,0.3486336018104339,0.9023658106016228,7.48228576780275
2,22,female,44,15,15,right,same,valid,anti,2,0.41638452617007715,1,f,1,same,1.285200100583097,0.16635490351703258,0.7912398743737867,0.5019728452334675,0.295791113825544,0.034808803040505154,0.3485678509932768,0.9023359821821941,6.109576782841032
2,22,female,45,15,325,left,change,valid,anti,2,1.7130073076423287,1,j,1,change,3.6608714003832574,0.16595336318748705,0.7399738023086684,0.5019632231633295,0.2957856613174954,0.03484664985080599,0.34853673963152687,0.9023581129458762,9.712843732440888
2,22,female,46,105,55,left,change,valid,anti,2,0.7613729668555607,1,j,1,change,1.6533539972660947,0.16555854398825354,1.107554544310915,0.5019260178214608,0.44927212242328096,0.03481521775393048,0.3486496385939972,0.9022468176590337,7.279494212645659
2,22,female,47,135,85,left,change,valid,anti,3,0.5293415424566774,1,f,0,same,1.636336402987581,0.1651690259374381,0.8721169068758172,0.5020129371951043,0.4003448550156463,0.03481521775393048,0.3485790767444996,0.9024453530528262,6.74919816077454
2,22,female,48,135,135,right,same,valid,anti,2,0.9134546056357067,1,j,0,change,1.6244374296002206,0.16478344243692578,0.7611093221185001,0.5019859953972627,0.40033587441575946,0.03487391238559212,0.34861884796919185,0.902291720656649,7.014155028236928
2,22,female,49,15,15,left,same,valid,clock,2,0.48140246170987666,1,f,1,same,1.7827567360909597,0.16437393339266837,0.9891905657532334,0.5019786184766417,0.497957234385467,0.034843442494093324,0.34853609816127573,0.9023055122925143,7.060837466546218
2,22,female,50,45,15,right,change,catch,clock,2,0.4814762309197249,1,j,1,change,1.065172209408047,0,0.6663553392227186,0.5019834295108012,0.2957795673410146,0.03485274382910575,0.34861211251882196,0.9023366236524453,7.326389298717913
2,22,female,51,45,355,right,change,valid,anti,2,0.5121247713159391,1,f,0,same,2.164210900395119,0.1639655905284666,1.1953569018478447,0.5019802221540886,0.29583858270780183,0.034819066582713276,0.3485431543449522,0.9023815266518795,7.482451908890653
2,22,female,52,45,45,left,same,valid,anti,2,0.41746572618467326,1,f,1,same,1.0082268704663875,0.16355687544007586,0.5576583343809034,0.5019863161323883,0.44914928065372806,0.03484600838055485,0.3485547008294816,0.9023542641170934,5.750551986124265
2,22,female,53,165,165,left,same,valid,anti,2,0.5854128766404756,1,j,0,change,1.3231816210736724,0.16314626887549422,0.8789899519924802,0.5019911271683668,0.3446131799264549,0.034848895002141944,0.34857137908693403,0.9022949280133616,6.437036055822318
2,22,female,54,105,75,right,change,catch,clock,2,0.9133955902689195,1,f,0,same,1.690610013625701,0,0.8053897708414297,0.5019795806820184,0.29576609644027485,0.03484953647421207,0.34860730148466246,0.9023491323459893,8.527247459132923
2,22,female,55,135,135,left,same,valid,anti,1,0.5924539872576133,0,f,1,same,1.3829340387801494,0.1627322600905295,1.363517020799918,0.5019943345232605,0.400357684442497,0.03485146088678448,0.3486079429567326,0.9023202661337564,7.061131581176596
2,22,female,56,105,105,right,same,valid,anti,2,0.49745849038663437,1,f,1,same,1.6900593104455766,0.16382175108786018,0.7815735421281715,0.501962902428204,0.4003438928084506,0.034814255546734785,0.3485591911303345,0.9023895450427517,6.686658549915592
2,22,female,57,15,165,right,change,catch,clock,2,0.45740180997563584,1,j,1,change,1.8790720603283262,0,0.5566367912069836,0.502008767631196,0.29574428641353734,0.03478763448583777,0.34860281118380954,0.9023581129458762,7.996961670802193
2,22,female,58,135,185,left,change,valid,clock,2,0.46423155577394937,1,f,0,same,1.7674602095303271,0.16341957424410575,1.223379899878637,0.5020219177931722,0.49789501166196715,0.03485755486508424,0.3485992830919713,0.9023363029191387,7.279488118667359
2,22,female,1,165,215,right,change,valid,clock,3,0.7043977994962916,1,f,0,same,1.4846329115862318,0.16301498021946764,0.658478391394965,0.5020090883663215,0.4003592881217628,0.034854668243497144,0.34858452924891026,0.902301342728606,6.56782758018926
2,22,female,2,75,75,left,same,valid,clock,2,0.4574300347176177,1,f,1,same,1.9345365625867998,0.16260650591903508,0.7852806052414962,0.5019539218264981,0.49798161029866606,0.03483414116089989,0.3485880573425675,0.902344962782081,6.982947766267898
2,22,female,3,75,25,left,change,valid,anti,2,0.7215324623011838,1,j,1,change,1.0046317441101564,0.1621926826436127,0.6384397876481671,0.5019949759971496,0.49796653572047944,0.03481650069807074,0.34859511352806294,0.9023170587770437,6.171788601823209
2,22,female,4,105,105,right,same,valid,clock,2,0.4654080142863677,1,f,1,same,1.2601823959721514,0.16177202646310712,0.9914645817989367,0.5020283325084165,0.29573819243705657,0.034780578298523324,0.3486287907744554,0.9022695898947859,6.327669034122664
2,22,female,5,15,15,right,same,valid,clock,2,0.4575147089399252,1,j,0,change,1.1118376487247588,0.16134302863318783,0.9008285244362924,0.5019706000839506,0.4492153522078297,0.03482195320430037,0.3486182064989407,0.9022792119649239,6.234168807042806
2,22,female,6,105,105,right,same,valid,anti,2,1.4014106597151113,1,j,0,change,1.9730312601841433,0.16090414595957747,0.848520382111019,0.5020049188024132,0.40034068544991896,0.034836386308597866,0.3485938305839227,0.9022853059432236,7.9346292551999795
2,22,female,7,15,65,right,change,valid,clock,2,0.4333892910199211,1,j,1,change,1.6145116221796343,0.16045379101617574,0.9469846354768379,0.5019539218283171,0.29575743657915154,0.03483221674650849,0.3486287907762744,0.9023446420451364,6.608462547052113
2,22,female,8,105,85,right,same,catch,clock,2,0.9134183625028527,1,j,0,change,1.8774616464270366,0,0.564285375223335,0.5019452619635558,0.44915761978336377,0.03487968562694732,0.3485800389498763,0.9023456042541511,8.620890734331624
2,22,female,9,165,165,right,same,valid,clock,2,2.6643674194128835,1,j,0,change,1.4530940089134674,0.1599902287006048,1.33085073217444,0.501953280358066,0.4003920031609596,0.03477672947155952,0.34858068042194645,0.9023199453968118,9.166959925998526
2,22,female,10,105,55,right,change,valid,anti,2,0.6654149421774491,1,j,1,change,1.339901893366914,0.15952560093984552,0.6693025794847927,0.5020100505753362,0.49797295043390477,0.03486332810825843,0.3485697754076682,0.9023266808490007,6.483578011901045
2,22,female,11,75,185,left,change,catch,clock,2,0.31339405073777016,1,f,0,same,1.6121019349338894,0,0.8372352968344785,0.5019632231633295,0.34465936586821044,0.034831896009563934,0.34856720952302567,0.9022965316926275,7.919084158480473
2,22,female,12,135,85,left,change,valid,anti,2,0.440499039075803,1,f,0,same,1.1973727256627171,0.15907992068669757,1.070931339469098,0.5019712415542017,0.3445522401470953,0.03487583679998352,0.348602490446865,0.9022862681504193,6.374450259027071
2,22,female,13,135,185,left,change,valid,clock,1,0.20939133346473682,0,j,1,change,1.3572617126264959,0.15865131399532112,0.9131139843339042,0.5019936930530093,0.49797904441220453,0.03486685620009666,0.348544758024218,0.9023154550977779,6.296386720003284
2,22,female,14,165,165,left,same,valid,clock,2,0.47341486006916966,1,f,1,same,1.230284697827301,0.1598918343046779,0.7219574370901682,0.5019228104665672,0.4979437634883652,0.03481136892514769,0.3486031319189351,0.9023446420451364,6.234153411729494
2,22,female,15,15,15,right,same,valid,anti,2,0.6094504129796405,1,f,1,same,1.345266197793535,0.15943742299955527,0.9204761513774429,0.5018724549609033,0.4004003422887763,0.034847932793127256,0.3486040941261308,0.9022618922390393,6.592794608561235
2,22,female,16,45,45,left,same,valid,clock,2,0.37745940127570066,1,f,1,same,1.29262416961501,0.15900128700600213,0.9487736991595739,0.5020142201374256,0.4979828932409873,0.03484504617335915,0.3485803596868209,0.9023613203025889,6.421425849757725
2,22,female,17,45,45,left,same,valid,anti,1,1.8572876922171417,0,f,1,same,1.6631787729420466,0.1585816278898412,0.8242304267841973,0.5019914479034924,0.3445439010174596,0.0348283679177257,0.34863135666091694,0.9023635654521058,7.9968356216759275
2,22,female,18,165,165,left,same,valid,anti,2,1.033343040933687,1,j,0,change,1.639647678257461,0.15979687580830848,1.0538457492257294,0.5019058114758082,0.2957988114831096,0.03485659265788854,0.3485861329281761,0.9023244356958458,7.326091976732641
2,22,female,19,45,95,left,change,valid,clock,2,0.5854237816529348,1,f,0,same,1.0030036897442187,0.15935228186709494,1.3103624569885142,0.502059764605292,0.2957189482949616,0.03488481739805138,0.3485162125471106,0.9023972427003173,6.499222857422865
2,22,female,20,45,355,right,change,valid,anti,3,0.4573078344183159,1,j,1,change,1.2315894506173208,0.1589253262212173,1.0621948199895996,0.5020504632702796,0.4980184949017712,0.03481168966027326,0.34857586938596796,0.9023250771697349,6.561504596784289
2,22,female,21,135,135,left,same,valid,clock,1,0.5853198632903513,0,j,0,change,2.793753479982115,0.1585142815661026,0.9101484621351119,0.5019433375509834,0.4003259316086769,0.034883855190855684,0.34857811453548493,0.9023016634619125,7.996639010698345
2,22,female,22,45,95,right,change,valid,clock,2,0.3773362387710222,1,j,1,change,1.2980818081286998,0.15970517625058034,0.9623757790668606,0.5019959382025263,0.4491717321525357,0.0348559511876374,0.3485678509950958,0.9023112855338695,6.405625768162281
2,22,female,23,45,45,right,same,valid,clock,2,0.43347621039174555,1,f,1,same,1.3081557954374148,0.15927002316027405,0.8293673296047928,0.501994655260205,0.3445734087017627,0.03489347726281267,0.3485681717284024,0.902327963789503,6.234272404670264
2,22,female,24,15,65,left,change,valid,clock,1,0.5290759733052255,0,j,1,change,2.672652663773988,0.15885190412745187,0.8554142750472238,0.501960657276868,0.4979649320412136,0.03483574483834673,0.3485861329281761,0.9023824888572562,7.872099907885058
2,22,female,25,45,15,right,change,catch,clock,2,0.5534153219305153,1,f,0,same,2.101662950408354,0,0.9098514608867845,0.5019914479034924,0.34454614616879553,0.03484761205800169,0.34856656805277453,0.9023975634354429,8.730138763090508
2,22,female,26,15,45,left,same,catch,clock,2,0.368380656815134,1,f,1,same,1.7244675146066584,0,1.238698236466007,0.501987278339584,0.4491605064031319,0.03481585922418162,0.3486451482949633,0.9023443213100109,8.605645846217158
2,22,female,27,45,355,left,change,valid,anti,1,0.36028111841733335,0,j,1,change,1.0770131296358159,0.1600598433232222,1.211198679082372,0.5019382057798794,0.34458206856470497,0.034911759195892955,0.34853032491810154,0.9023850547437178,6.312130672851708
2,22,female,28,105,105,left,same,valid,clock,2,0.3934628292990965,1,j,0,change,1.1575431261226186,0.1612345510236674,0.813468140682744,0.5020469351784413,0.2957397961163224,0.03481906658089429,0.34860569780539663,0.9022808156441897,5.968886713586471
2,22,female,29,15,325,left,change,valid,anti,2,0.46549589586538787,1,j,1,change,1.0958832932628866,0.16082344560753287,0.907603424431727,0.5019327532718307,0.4003984178743849,0.034786030806571944,0.34862077238358324,0.9023212283391331,6.187098920017888
2,22,female,30,135,85,right,change,valid,anti,2,0.7614310200169712,1,f,0,same,1.2911061275899556,0.16040110193711615,0.9913151189684868,0.5019863161323883,0.400357684440678,0.034843121758967754,0.3485813218940166,0.9022849852062791,6.748853049170066
2,22,female,31,105,155,left,change,valid,clock,1,0.433430024453628,0,j,1,change,2.099672785449002,0.15996578796275068,1.0356834492686176,0.5019635438984551,0.34459746387801715,0.03484151807970193,0.3485973586775799,0.9023568300017359,7.216873776393186
2,22,female,32,165,215,left,change,valid,clock,2,0.41743910512195725,1,j,1,change,1.18560814052762,0.16113438321706258,0.6625430748026702,0.5018920198399428,0.44919995689269854,0.03482099099710467,0.348655732574116,0.9023314918831602,6.031423758558958
2,22,female,33,75,75,right,same,valid,clock,2,0.729288492771957,1,j,0,change,2.156058440608831,0.16072618662828658,0.9118332867183199,0.5020100505735172,0.40036089179920964,0.03478250271291472,0.34856817173022137,0.9023962804913026,7.513498803014954
2,22,female,34,135,135,right,same,valid,clock,2,0.40145075167674804,1,j,0,change,1.2744150422477105,0.1603065216584149,0.5063633961035521,0.5019965796745964,0.40033619515088503,0.034843442494093324,0.3485992830901523,0.9023292467318242,5.891282788810713
2,22,female,35,15,15,left,same,valid,clock,2,0.32949658608959,1,j,0,change,1.2560352834916557,0.15987390596686285,0.7402650303156406,0.5019417338717176,0.29578245396078273,0.034911759197711945,0.3485880573425675,0.9023456042541511,5.937833725485689
2,22,female,36,105,105,left,same,valid,anti,2,0.2893792866325384,1,f,1,same,1.5974702934618108,0.1594480341939266,0.8227001968025434,0.5020017114457005,0.40036666504238383,0.03480976524770085,0.34858356704353355,0.9023215490760776,6.421493204252329
2,22,female,37,45,125,left,same,catch,clock,2,0.3054439751722384,1,f,1,same,1.3544658596110821,0,0.6461967803279549,0.5020610475494323,0.3444884137443296,0.034859800014601205,0.3486310359239724,0.902344962782081,7.466622640346031
2,22,female,38,135,185,right,change,valid,clock,1,0.35229800707747927,0,j,1,change,1.2770745825946506,0.15903914653328305,1.2276104036391189,0.5020344264848973,0.4002877640614315,0.03488770401963848,0.34862269679615565,0.9022676654803945,6.577667751180343
2,22,female,39,75,25,right,change,valid,anti,1,0.3293724613777158,0,j,1,change,2.1959688655442733,0.16021368124347618,0.7093044140929123,0.5019911271683668,0.40033876103734656,0.03484761205800169,0.34856560584375984,0.9023542641170934,6.951787973182945
2,22,female,40,75,125,left,change,valid,clock,2,0.3054192785239138,1,f,0,same,1.3916144295126287,0.1613326661645314,0.5726883295828884,0.5020129371932853,0.29573177772181225,0.03485659265788854,0.34860537707027106,0.9022971731628786,5.875501951355545
2,22,female,41,15,325,right,change,valid,anti,2,0.4413060100723669,1,j,1,change,1.7756094619580836,0.16094027776016617,0.6181186157573393,0.5019516766769812,0.44913613048993284,0.034905344484286616,0.34855502156642615,0.9023189831896161,6.593035481066181
2,22,female,42,75,75,right,same,valid,anti,2,2.033479032865216,1,j,0,change,1.1653636244682275,0.1605373269050564,0.6445558965333475,0.5019866368675139,0.49794055612983357,0.034888345491708606,0.3485155710768595,0.9023895450427517,7.653702316223644
2,22,female,43,165,115,right,change,valid,anti,2,0.4574354872238473,1,j,1,change,1.172009267977046,0.1601224796806902,0.7960361558925797,0.5019526388841768,0.40037596637739625,0.03483349968701077,0.348573624236451,0.9023391895389068,6.140572038519167
2,22,female,44,105,85,left,same,catch,anti,1,0.3134729517169035,0,j,0,change,0.3722743880989583,0,0.9445079144734336,0.5019837502477458,0.44908481277889223,0.03488032709901745,0.3486166028196749,0.9023154550977779,6.889359336872076
2,22,female,45,15,165,right,change,catch,clock,1,0.24813011092373927,0,j,1,change,2.103149560334714,0,1.0241164373182983,0.5019734867037187,0.29578213322565716,0.034819066582713276,0.3486239797402959,0.9022849852062791,8.496349386367001
2,22,female,46,15,15,left,same,valid,anti,1,0.5445104162117786,0,j,0,change,2.0164717021325487,0.15969896907789205,0.992824501126961,0.5019840709828713,0.2957417205288948,0.0348626866361883,0.348573624236451,0.9022978146349487,7.17040334437479
2,22,female,47,75,15,right,same,catch,clock,2,0.44941420833492884,1,f,1,same,1.4903833817861596,0,0.6617919118143618,0.5019289044430479,0.3446398009909899,0.03484568764542928,0.3485466824386094,0.9023298882038944,7.7629195543577225
2,22,female,48,135,135,left,same,valid,anti,2,0.2483850957978575,1,f,1,same,1.444659943190345,0.16084610526354037,1.2595819787602522,0.5019843917179969,0.29570900548969803,0.03489315652586811,0.3485582289231388,0.9023747912015097,6.561863179285865
2,22,female,49,135,135,right,same,valid,anti,2,0.7533744602023944,1,f,1,same,1.9162613636653987,0.16044551167862559,0.6901006853477156,0.5019580913904065,0.4979678186646197,0.03482451908894291,0.348592868378546,0.9023395102758514,7.170132001980164
2,22,female,50,105,55,left,change,valid,anti,2,0.4971104921623919,1,f,0,same,1.8924316640532197,0.1600328221943167,0.7547735092848598,0.5020138994023,0.44914767697446223,0.03481553848905605,0.3485582289249578,0.9023722253150481,6.9050381803772325
2,22,female,51,75,75,left,same,valid,anti,1,0.2494816911239468,0,j,0,change,0.4571173174172145,0.1596156354733554,0.5849038690994348,0.5019491107923386,0.2957343436082738,0.03488962843402987,0.34855854966008337,0.9023433591028152,4.892797302740291
2,22,female,52,105,155,right,change,valid,clock,1,0.3372237503481301,0,j,1,change,1.847304473109034,0.1607537086260673,0.9193631985290267,0.5019529596211214,0.34458110635750927,0.03484376323103788,0.3485678509932768,0.9023664520718739,6.764654413707831
2,22,female,53,45,45,right,same,valid,anti,3,0.289379607367664,1,f,1,same,1.6144375322328415,0.16178982684324433,0.6532042136968812,0.5020167860238871,0.4491861652586522,0.034859158544350066,0.348547003173735,0.9023741497312585,6.312318944703293
2,22,female,54,165,165,right,same,valid,anti,2,0.4814733442981378,1,j,0,change,1.11710861906613,0.1614233799223872,0.6330924822104862,0.5019747696478589,0.34451182745033293,0.03489540167720406,0.348600245299167,0.9023298882057134,5.8910621226532385
2,22,female,55,75,125,right,change,valid,clock,2,0.8734194145163201,1,f,0,same,1.656817942724956,0.1610481631964258,0.9886770679113397,0.5018974723461724,0.4004144546597672,0.034841838816646487,0.348556625245692,0.9023071159699612,7.232420156056833
2,22,female,56,105,155,left,same,catch,anti,2,0.929394848726588,1,f,1,same,2.333180556232037,0,0.9460638033087889,0.5019539218283171,0.4003801359413046,0.034803029797330964,0.3486089051621093,0.9023048708204442,9.416603267911341
2,22,female,57,105,75,right,change,catch,clock,2,0.4404846059696865,1,j,1,change,0.8684175414200581,0,1.1326819405294373,0.5019654683128465,0.40031213997463055,0.034882572250353405,0.3485476446458051,0.9023125684780098,7.669647049615378
2,22,female,58,165,115,left,change,valid,anti,2,0.3842776005876658,1,f,0,same,1.0404117348207365,0.1606629879572145,0.7637502597954153,0.5019298666520626,0.4978927665106312,0.034882251513408846,0.34862847004114883,0.9022564397309907,6.000298925664538
2,22,female,1,15,15,left,same,valid,anti,2,0.41622640347486595,1,f,1,same,1.2326097108507383,0.16026662313915985,0.838192692870507,0.5019686756695592,0.34458976622227055,0.03478186124266358,0.3486781840711046,0.9023026256709272,6.145678471450083
2,22,female,2,15,15,left,same,valid,clock,2,2.0653572739010997,1,j,0,change,2.958393524730127,0.15985791947186362,0.8736416843512416,0.5019580913922255,0.29576128540611535,0.034819387317838846,0.34857619012109353,0.902333095562426,9.510110230441569
2,22,female,3,165,165,left,same,valid,clock,1,0.5373400491116627,0,j,0,change,2.3984002345223416,0.15945660482449492,1.0285108370171656,0.5020251251517038,0.4491861652586522,0.034807199363058317,0.3486182064971217,0.9022660618029477,7.731992294646261
2,22,female,4,75,25,right,change,valid,anti,2,0.3854482858587289,1,j,1,change,1.5177514375372994,0.1605738494099015,0.5467138704079844,0.5019904856962967,0.4979601210070541,0.034888345491708606,0.3485707376166829,0.9022525909040269,6.265549907755485
2,22,female,5,45,45,left,same,valid,clock,2,0.3852895216932666,1,f,1,same,2.3460866396908386,0.16017937232329066,0.7427661272322439,0.502047897385637,0.49792644375884265,0.03481553848905605,0.348592868376727,0.9022910791863978,7.279135950879208
2,22,female,6,45,95,right,change,valid,clock,2,0.4094008272422798,1,f,0,same,1.4556079352569213,0.15977423442907807,0.8138292890689627,0.5019949759953306,0.4003496660498058,0.03483542410322116,0.34859415132086724,0.9023613203007699,6.390164704193012
2,22,female,7,15,325,right,change,valid,anti,2,0.369468592278281,1,j,1,change,0.9720170939290256,0.15938067732833866,0.6438804271692788,0.5019757318550546,0.49801111798115016,0.034853706036301446,0.3486204516484577,0.9022750424010155,5.797475296936682
2,22,female,8,15,65,right,change,valid,clock,2,0.3533808107677032,1,j,1,change,0.9499883252210566,0.15900252436073015,0.9438565002856194,0.5019802221540886,0.3446359521622071,0.034841838816646487,0.3485117222480767,0.9024370139250095,5.906498489977821
2,22,female,9,75,75,left,same,valid,anti,2,0.6094642046136869,1,f,1,same,1.5366626553332026,0.1586384092565864,1.0523318767645833,0.5019972211466666,0.44914928065372806,0.03481746290526644,0.3485784352724295,0.9024421456961136,6.95186879857647
2,22,female,10,135,185,right,change,valid,clock,2,0.5455037346473546,1,j,1,change,0.7644382378530281,0.15828705448965713,0.8357329708596808,0.5020010699736304,0.4003442135417572,0.03487872341975162,0.3486252626826172,0.9023067952330166,5.859762809543099
2,22,female,11,45,45,left,same,valid,anti,2,0.6174117142945761,1,f,1,same,2.268903199401393,0.15794726244992935,0.9199783695858059,0.5020520669495454,0.4979023885825882,0.034900533448308124,0.348518136963321,0.9023148136275267,7.622427058289759
2,22,female,12,105,85,left,same,catch,anti,2,0.4174054278737458,1,j,0,change,1.5641513077025593,0,0.5826096467026218,0.501970279348825,0.29576417202770244,0.03484440470128902,0.3486214138538344,0.9023029464078718,7.669332087167277
2,22,female,13,75,125,right,change,valid,clock,1,0.8242981020139268,0,j,1,change,1.8691751191199728,0.15761790739804604,1.1131436844589189,0.5019526388841768,0.4491929007072031,0.03481714216832188,0.3485877366074419,0.9023626032449101,7.575893441340668
2,22,female,14,135,85,left,change,valid,anti,1,0.3454640917152574,0,j,1,change,0.8990554975371197,0.15857838091117749,0.639092164041358,0.5019561669760151,0.29577956733919564,0.034808803040505154,0.3485915854344057,0.9023757534087054,5.485499860160417
2,22,female,15,45,125,left,same,catch,clock,2,0.32146440218821226,1,j,0,change,0.8765578132497467,0,1.0414101850255975,0.5019933723178838,0.3445281849690218,0.03488161004133872,0.3485909439641546,0.9023584336810018,7.404149101041185
2,22,female,16,105,105,right,same,valid,anti,2,0.2627206982288044,1,f,1,same,3.1683532018396363,0.15961428957613144,0.8902272476516373,0.501885925861643,0.49807783100732195,0.03481168966209225,0.34856720952302567,0.9023549055891635,8.1373945100313
2,22,female,17,45,95,left,change,valid,clock,3,0.6573612689844595,1,f,0,same,2.1520546969823044,0.15923547222576917,0.6434423022146802,0.5020488595928327,0.49781803509540623,0.03490758963198459,0.3486451482949633,0.902253232374278,7.263870856415451
2,22,female,18,135,135,left,same,valid,clock,2,0.417483687382628,1,j,0,change,1.0755181805816392,0.15887115498930748,0.6659249119256856,0.5019917686404369,0.4979697430771921,0.03480174685319071,0.3486804292206216,0.9023565092666104,5.968748797240551
2,22,female,19,165,215,left,change,valid,clock,2,0.41747438604761555,1,j,1,change,0.7991767997755232,0.1585200629996641,0.9694980358144676,0.5019491107923386,0.4003172717457346,0.03488770401963848,0.34851140151113214,0.9023388688037812,5.890982259468728
2,22,female,20,165,165,left,same,valid,anti,2,0.9051161191491701,1,j,0,change,1.1812114956810547,0.15818100234178234,0.9855566303758678,0.501987278339584,0.4491162448775867,0.03490213712575496,0.34859992456222244,0.9023369443893898,6.826824537049106
2,22,female,21,135,135,right,same,valid,clock,2,0.345399303105296,1,f,1,same,1.7583955774389324,0.15785285209090877,1.1199391115369508,0.5019571291850298,0.4491233010630822,0.03485787560020981,0.34866952420816233,0.902265099595752,6.983114869564815
2,22,female,22,75,75,right,same,valid,clock,2,0.39341247379525157,1,j,0,change,2.1578147892523702,0.1575345570421522,0.596399998459674,0.5019433375509834,0.40034453427870176,0.03489219431867241,0.3485983208847756,0.9023067952348356,6.858239635746941
2,22,female,23,165,165,right,same,valid,anti,2,0.7693615307052823,1,j,0,change,1.031679705642091,0.15722512105583242,0.5151114620675799,0.5020029943898408,0.29578020881126577,0.03487359165046655,0.3485399469900585,0.9023674142808886,5.922278365222155
2,22,female,24,165,215,right,change,valid,clock,2,1.409360735278824,1,f,0,same,2.5080501451011514,0.1569236009510706,0.9987067936945095,0.5019484693202685,0.2957744355680916,0.03481233113234339,0.3485957549983141,0.9022920413935935,8.527273759456875
2,22,female,25,15,15,right,same,valid,clock,1,0.2494922754012805,0,j,0,change,0.5206704530592106,0.1566291008870641,0.7888689961491764,0.502016144551817,0.2957580780494027,0.03485017794446321,0.34861596134760475,0.9022801741721196,5.173397412047052
2,22,female,26,165,115,left,change,valid,anti,1,0.5692689663846977,0,j,1,change,5.1609009080675605,0.1574945847023388,0.8334204665279685,0.5019981833520433,0.2957866235265101,0.03484761205800169,0.3486095466341794,0.9023167380400992,10.165393132150712
2,22,female,27,165,165,right,same,valid,clock,3,0.5855418123883283,1,j,0,change,0.8831874199768208,0.15840827246681538,0.7635392157117167,0.502035388693912,0.400222333981219,0.03491592876162031,0.34853673963152687,0.9023844132716476,5.938003073930304
2,22,female,28,75,75,right,same,valid,anti,2,0.6012989154005481,1,f,1,same,2.738878169189775,0.1580807618787452,0.8277960454579443,0.5019494315274642,0.34462151905427163,0.03479501140463981,0.34863039445372124,0.9023103233266738,7.8253507565514155
2,22,female,29,45,45,right,same,valid,anti,2,0.6013662698951521,1,j,0,change,3.009256111297873,0.15776356344682374,0.9184407626835309,0.5019940137881349,0.400302197167548,0.034883534455730114,0.3486429031454463,0.902301342726787,8.24656973178935
2,22,female,30,135,135,right,same,valid,anti,2,0.41745642484966083,1,j,0,change,1.1591811232938198,0.15745568612980188,0.900263708885177,0.5019186409008398,0.400382060353877,0.034837348515793565,0.3485963964703842,0.9023263601102371,6.1874648794419045
2,22,female,31,75,185,left,change,catch,clock,1,0.1774592088349891,0,j,1,change,0.8185559709454537,0,0.8067153714491724,0.5020097298383916,0.44910726427769987,0.03487006355680933,0.3485049867995258,0.9024305992097652,7.060930159163036
2,22,female,32,45,45,right,same,valid,clock,2,2.2802521110825182,1,f,1,same,2.469377118457487,0.1571561930918951,0.6901324381815357,0.5019763733253058,0.40035704297224584,0.03485081941653334,0.3485296834460314,0.9023273223192518,9.167126067088248
2,22,female,33,105,85,right,same,catch,clock,2,0.4734517446740938,1,j,0,change,0.7990465810853493,0,0.9945859815416043,0.5019750903829845,0.4491412622610369,0.034876478270234657,0.348619489439443,0.9022634959164861,7.528873909819595
2,22,female,34,75,125,left,change,valid,clock,2,0.7282656666557159,1,f,0,same,4.199203484986356,0.15686419614841018,0.8052999648461991,0.5019398094573262,0.29576032319891965,0.03483959366712952,0.3485623984870472,0.9023125684761908,9.354340131219942
2,22,female,35,105,75,right,change,catch,clock,1,0.28945914981886744,0,j,1,change,1.969917878834167,0,0.8813059844142117,0.502006522481679,0.3445596170677163,0.03486108295874146,0.3485021001779387,0.9024232222891442,8.29315145909095
2,22,female,36,105,155,left,same,catch,anti,1,0.6638337152235181,0,j,0,change,2.70697426930019,0,1.155838095188301,0.502074518448353,0.4979325377371424,0.0348075200963649,0.34859415132086724,0.9023385480686557,9.85335258602754
2,22,female,37,105,105,right,same,valid,clock,1,0.4643826222836651,0,j,0,change,0.6779079180651024,0.1565788506461981,1.13388245421811,0.5020045980672876,0.49790270931953273,0.03489283579074254,0.34860922589723486,0.9022564397309907,6.09388543064415
2,22,female,38,45,355,left,change,valid,anti,2,0.36930437560477003,1,j,1,change,0.9580150566162047,0.1574178182906521,0.8042768179930135,0.5019904856962967,0.2957635305556323,0.03483959366712952,0.3486210931187088,0.9023096818564227,5.735040566651151
2,22,female,39,15,165,right,change,catch,clock,2,0.7934648178597854,1,j,1,change,0.5656975744677766,0,0.9425090896493202,0.5019683549326146,0.4491165656145313,0.03486749767216679,0.34860056603429257,0.9023128892131353,7.560273292467173
2,22,female,40,135,185,left,change,valid,clock,1,0.7361192007774662,0,f,0,same,3.548091109463712,0.15712308745391068,1.1070083314298245,0.5020122957248532,0.295740116849629,0.03484632911568042,0.3486448275598377,0.9023010219934804,9.010695893812226
2,22,female,41,15,65,left,change,valid,clock,2,0.39341247379707056,1,f,0,same,1.3573242560869403,0.15798586491560807,0.9124090072837134,0.501999145561058,0.34464493276209396,0.03483959366712952,0.34857394497157657,0.9023420761604939,6.3121483133145375
2,22,female,42,15,15,right,same,valid,anti,3,0.9372583256572398,1,j,0,change,2.1766285033954773,0.1576789878232413,0.8064190116710961,0.5019908064332412,0.44913196092784347,0.03479918096854817,0.34859703794063535,0.902344962782081,7.684799245116665
2,22,female,43,105,155,right,change,valid,clock,2,0.7294966502358875,1,f,0,same,1.6059114153667906,0.15738094040638462,0.8551047651053523,0.5019863161323883,0.34453427894914057,0.034900533448308124,0.3485508520025178,0.902361961774659,6.842584847419857
2,22,female,44,105,105,left,same,valid,anti,2,0.433079460342924,1,f,1,same,1.5188948602753953,0.15709084001350937,0.8775739039174368,0.5020254458868294,0.3445942565213045,0.034837348515793565,0.34853994698823954,0.9023953182859259,6.483701495140849
2,22,female,45,45,355,right,change,valid,anti,2,0.4334354769598576,1,j,1,change,1.2086090591146785,0.1568078487891682,0.7618284115360439,0.5019972211466666,0.4491261876846693,0.034842801023842185,0.34858549145792495,0.9023167380419181,6.171830938934363
2,22,female,46,135,85,right,change,valid,anti,2,0.8494040089390182,1,f,0,same,1.4047896102165396,0.15653116899699038,0.7958661659777135,0.5019401301942708,0.4491964288008603,0.03488738328451291,0.3485925476434204,0.9022901169792021,6.81123549953918
2,22,female,47,105,155,left,change,valid,clock,2,0.5373471052971581,1,f,0,same,1.2519593743345467,0.1562600386891465,1.035584021205068,0.5019481485851429,0.44916371375984454,0.03479469066951424,0.3486611850785266,0.902364206924176,6.5929360530008125
2,22,female,48,15,325,left,change,valid,anti,2,0.4014170744285366,1,f,0,same,1.090153350149194,0.15599372768389413,0.8232820113462367,0.5019673927254189,0.344579823415188,0.03485178162191005,0.34860954663236043,0.9023212283409521,5.969035214213363
2,22,female,49,75,25,left,change,valid,anti,2,0.35348825722394395,1,f,0,same,2.171422000928942,0.15573153381640353,0.8303369135992398,0.5019802221540886,0.4491399793205346,0.03484632911568042,0.34859960382709687,0.9022727972514986,7.123181107897835
2,22,female,50,105,55,right,change,valid,anti,3,0.6094799206639436,1,f,0,same,1.3539581350105436,0.1554727794312239,0.7360088677014573,0.5019885612819053,0.29576320982050675,0.03485114015165891,0.3485649643716897,0.9023196246616862,6.311964852500751
2,22,female,51,165,115,right,change,valid,anti,2,0.6013919287506724,1,f,0,same,1.2284071110952937,0.15521680808753613,0.9438244267166738,0.5020232007373124,0.2958180556233856,0.03478827595426992,0.3485348152171355,0.9023757534068864,6.374664189732357
2,22,female,52,15,45,left,same,catch,clock,2,0.6094023026253126,1,j,0,change,1.382622925160831,0,0.8557975541971246,0.5020369923713588,0.4490174582842883,0.034917211703941575,0.34856528510863427,0.902344962782081,8.106218038688894
2,22,female,53,75,15,right,same,catch,clock,2,0.2961894675536314,1,f,1,same,1.145027377999213,0,1.3179244423699856,0.5019667512551678,0.34456603178114165,0.03487583679816453,0.3485498897953221,0.9023709423727269,7.934596540158964
2,22,female,54,75,75,left,same,valid,clock,2,0.5684905408634222,1,j,0,change,0.9254125943916733,0.1549629814507804,1.1419111100276496,0.5019856746603182,0.29579079309041845,0.034786030806571944,0.34863584696176986,0.9023658106034418,6.249800502400831
