subject,age,gender,ntrial,memory_ori,test_ori,cue,type,trial_type,which_change,pas,pas_rt,vis,test_key,test_acc,test,test_rt,contrast,fix_dur,cue_dur,jitter_dur,target_dur,mask_dur,retention_dur,trial_dur
3,22,female,1,45,45,left,same,valid,clock,2,2.0882321433618927,1,f,0,change,1.4273123118891817,0.5,0,0,0,0.38748880632465443,0,0,6.529328713028917
3,22,female,2,75,75,left,same,valid,clock,1,1.4653865249956652,0,f,0,change,2.2458522460483437,0.4069419370673367,0,0,0,0.3874041321014374,0,0,6.601178960251673
3,22,female,3,165,165,left,same,valid,clock,1,1.7614560374004213,0,f,0,change,1.6711307729210603,0.5274438292530478,0,0,0,0.38748495749587164,0,0,6.4570422652659545
3,22,female,4,75,25,left,change,valid,anti,1,1.2653484857428339,0,f,1,change,1.8960819569492742,0.6141825392808453,0,0,0,0.38751157855858764,0,0,6.397097406146713
3,22,female,5,105,105,left,same,catch,anti,2,1.7214987850529724,1,f,0,change,1.1291496783660477,0,0,0,0,0.3874727695401816,0,0,7.702786102650862
3,22,female,6,45,45,right,same,valid,clock,1,1.4561519029894043,0,f,0,change,2.7509150589257843,0.6864212281374446,0,0,0,0.3875093334090707,0,0,7.084287094366118
3,22,female,7,15,15,right,same,valid,anti,1,1.2574503693595034,0,f,0,change,1.81760980065701,0.7548501292694276,0,0,0,0.3874698829185945,0,0,5.96071949996076
3,22,female,8,15,125,left,same,catch,anti,1,2.56930873760939,0,f,0,change,2.1340335207287353,0,0,0,0,0.38740573578070325,0,0,9.480378352650405
3,22,female,9,135,85,left,change,valid,anti,1,1.5044130023679827,0,f,1,change,2.547732847696352,0.8149979570217469,0,0,0,0.3874002832735641,0,0,7.226396739785741
3,22,female,10,105,55,left,change,valid,anti,1,1.5053421736647579,0,f,1,change,3.3811212406562845,0.8711748696311536,0,0,0,0.38745929864035134,0,0,8.065228017417212
3,22,female,11,105,155,left,change,valid,clock,2,1.2414982590471482,1,f,1,change,1.03459551380638,0.9254270495669861,0,0,0,0.38747725984012504,0,0,5.727840050393752
3,22,female,12,75,125,right,change,valid,clock,1,1.4893326516630623,0,f,1,change,3.632143425303184,0.9057337219694201,0,0,0,0.3874702036546296,0,0,8.576519196672962
3,22,female,13,15,65,left,change,valid,clock,1,2.3373206125279467,0,f,1,change,3.96042474386104,0.9488085011899163,0,0,0,0.387493938094849,0,0,9.603619117387098
3,22,female,14,15,15,left,same,valid,clock,2,1.4012467637767259,1,f,0,change,5.7699933800149665,0.9889417996518639,0,0,0,0.38746186452590337,0,0,10.127196077273766
3,22,female,15,165,165,right,same,valid,clock,2,1.2654174439157941,1,f,0,change,1.4357861488369963,0.9744128050090293,0,0,0,0.38755616081925837,0,0,6.03429466372836
3,22,female,16,135,135,right,same,valid,anti,1,1.1853954927646555,0,f,0,change,2.895142201376075,0.9617309735433082,0,0,0,0.38745994011242146,0,0,7.387607157794264
3,22,female,17,165,115,right,change,valid,anti,2,1.217437629738015,1,f,1,change,1.3895581930000844,0.9896827529071957,0,0,0,0.3874669962979169,0,0,5.6396941849334326
3,22,female,18,75,75,left,same,valid,anti,2,1.2573647329300002,1,j,1,same,2.6372293311505928,0.9794623673564771,0,0,0,0.38744005449916585,0,0,7.47154625393523
3,22,female,19,165,165,left,same,catch,clock,1,2.145410977885149,0,f,0,change,1.2067013232272075,0,0,0,0,0.38749041000210127,0,0,8.029467270846908
3,22,female,20,45,95,left,change,valid,clock,1,1.6000400278135203,0,f,1,change,4.315322313710567,0.9704195063111303,0,0,0,0.3874663548258468,0,0,9.298390355862466
3,22,female,21,45,75,left,change,catch,clock,2,1.5214498407876818,1,j,0,same,1.2436571309808642,0,0,0,0,0.3875112578225526,0,0,7.452799252813747
3,22,female,22,105,125,right,same,catch,anti,1,1.704366367397597,0,f,0,change,2.7042278095814254,0,0,0,0,0.38739643444569083,0,0,8.918829494339661
3,22,female,23,105,105,left,same,valid,clock,1,1.2004232428171235,0,f,0,change,2.296974628525277,0.992190580373337,0,0,0,0.38750003207314876,0,0,6.872686854199856
3,22,female,24,135,85,right,change,valid,anti,1,1.361353017096917,0,f,1,change,3.0756259477730055,1,0,0,0,0.38744743142160587,0,0,7.7824507542427455
3,22,female,25,75,75,right,same,valid,anti,2,1.2254531353828497,1,j,1,same,1.1385616672105243,1,0,0,0,0.38750099428034446,0,0,5.869550059143876
3,22,female,26,165,215,right,change,valid,clock,3,2.3215195687262167,1,f,1,change,1.3698358346446184,1,0,0,0,0.387486561174228,0,0,7.187135483887687
3,22,female,27,45,135,right,same,catch,clock,1,1.1215363752762642,0,f,0,change,1.0183403082646691,0,0,0,0,0.3874737317473773,0,0,6.345497448226524
3,22,female,28,45,355,left,change,valid,anti,1,3.4721511614479823,0,f,1,change,1.9746323727504205,1,0,0,0,0.3875006735452189,0,0,8.427015952111105
3,22,female,29,165,165,right,same,valid,anti,1,2.009340464785055,0,f,0,change,2.869683164455637,1,0,0,0,0.3874721280699305,0,0,7.840826574361927
3,22,female,30,165,355,right,change,catch,anti,2,2.28145871875131,1,f,1,change,1.3758861927126418,0,0,0,0,0.38744967657112284,0,0,8.451060223898821
3,22,female,31,135,185,left,change,valid,clock,2,2.207578535340872,1,f,1,change,1.2339997793333168,1,0,0,0,0.3875022772244847,0,0,6.720683795663717
3,22,female,32,135,135,left,same,valid,anti,1,1.4654160326790588,0,f,0,change,3.1816294142863626,1,0,0,0,0.38752569092866906,0,0,7.682885094514859
3,22,female,33,135,15,left,same,catch,anti,2,1.4253757097885682,1,f,0,change,2.184732532092312,0,0,0,0,0.3875510290490638,0,0,8.637931742314322
3,22,female,34,105,105,right,same,valid,clock,1,2.199581311630027,0,f,0,change,1.9201753013003326,1,0,0,0,0.38742947022183216,0,0,7.099391500247293
3,22,female,35,105,105,right,same,valid,anti,1,1.8013327850894711,0,f,0,change,1.6981341521932336,1,0,0,0,0.38746667556188186,0,0,6.431960413518027
3,22,female,36,45,75,right,same,catch,anti,1,1.1933939994196407,0,f,0,change,0.8749842839515622,0,0,0,0,0.3874711658609158,0,0,6.8447584731948155
3,22,female,37,45,45,left,same,valid,anti,2,1.6082720300528308,1,j,1,same,2.58379348213748,1,0,0,0,0.38745224245576537,0,0,7.2818901082555385
3,22,female,38,15,15,left,same,valid,anti,2,1.4733298651099176,1,f,0,change,1.3403749785120453,1,0,0,0,0.3874512802485697,0,0,5.587005970815881
3,22,female,39,165,115,left,change,valid,anti,3,1.649462831865094,1,f,1,change,1.2218041254309355,1,0,0,0,0.3874689207113988,0,0,6.321019862520188
3,22,female,40,105,185,right,change,catch,anti,1,1.4254045760008012,0,f,1,change,1.383517136266164,0,0,0,0,0.3875385203573387,0,0,7.765124932966501
3,22,female,41,165,215,left,change,valid,clock,1,1.4564383199613076,0,f,1,change,1.6326152275050845,1,0,0,0,0.3875080504658399,0,0,6.007176140345109
3,22,female,42,15,15,right,same,valid,clock,1,2.113302769359507,0,f,0,change,2.289100888052417,1,0,0,0,0.3874711658609158,0,0,7.663520356452864
3,22,female,43,165,165,left,same,valid,anti,1,1.7852979249691998,0,f,0,change,3.3212260955697275,1,0,0,0,0.38750035280827433,0,0,8.315320710031301
3,22,female,44,105,155,right,change,valid,clock,3,2.441526996963148,1,j,0,same,1.0154491967496142,1,0,0,0,0.38747533542482415,0,0,6.535200100583097
3,22,female,45,45,95,right,change,valid,clock,2,2.313345940385261,1,f,1,change,2.8047540727002342,1,0,0,0,0.3874442240630742,0,0,7.981668993068524
3,22,female,46,135,185,right,change,valid,clock,2,3.7134598657012248,1,f,1,change,3.0423130559956917,1,0,0,0,0.38748752338142367,0,0,10.000637622553768
3,22,female,47,15,325,right,change,valid,anti,2,1.9691115493060352,1,f,1,change,2.4718641030049184,1,0,0,0,0.3875099748802313,0,0,7.760213186598776
3,22,female,48,105,105,left,same,valid,anti,1,1.5934453812787979,0,f,0,change,1.1676216037285485,1,0,0,0,0.38751542738646094,0,0,5.66961176868972
3,22,female,49,45,45,right,same,valid,anti,2,1.4973718917517544,1,j,1,same,1.4192701851807215,1,0,0,0,0.3875064467883931,0,0,6.37357561279714
3,22,female,50,75,75,right,same,valid,clock,2,2.9854674658545264,1,f,0,change,1.3552741135517863,1,0,0,0,0.38741535785084125,0,0,7.631488162285677
3,22,female,51,75,25,right,change,valid,anti,2,1.337379948630769,1,f,1,change,1.2228154050644662,1,0,0,0,0.3875365959429473,0,0,5.842025484374972
3,22,female,52,105,55,right,change,valid,anti,2,1.8334012223876925,1,f,1,change,1.2217752592187026,1,0,0,0,0.387438450821719,0,0,6.558492888647379
3,22,female,53,135,135,left,same,valid,clock,1,3.449339476919704,0,f,0,change,3.4352431433126185,1,0,0,0,0.3874329983136704,0,0,10.19646055335761
3,22,female,54,135,135,right,same,valid,clock,3,2.225536526662836,1,j,1,same,1.0399809867867589,1,0,0,0,0.38749842839388293,0,0,6.385150643138331
3,22,female,55,15,65,right,change,valid,clock,1,1.8654116065263224,0,f,1,change,1.4454248978145188,1,0,0,0,0.38748784411836823,0,0,6.0355310998165805
3,22,female,56,45,355,right,change,valid,anti,2,3.361440257203867,1,j,0,same,1.2298295738837624,1,0,0,0,0.3874281872776919,0,0,7.85308829981841
3,22,female,57,15,325,left,change,valid,anti,1,1.257450690096448,0,f,1,change,0.9487483610409981,1,0,0,0,0.38751254076669284,0,0,5.588953477928953
3,22,female,58,75,125,left,change,valid,clock,1,1.985344944820099,0,f,1,change,2.5627243546150567,1,0,0,0,0.38746314746822463,0,0,7.6030366613740625
3,22,female,1,165,115,right,change,valid,anti,2,2.8563642941626313,1,f,1,change,1.7601772642028664,1,0,0,0,0.38743813008477446,0,0,7.273299844249777
3,22,female,2,105,125,right,same,catch,anti,1,1.7133860964931955,0,f,0,change,1.8414494430744526,0,0,0,0,0.38745256319089094,0,0,8.076364602069589
3,22,female,3,165,165,right,same,valid,anti,2,2.9044502718552394,1,j,1,same,1.5016091309607873,1,0,0,0,0.38748880632374494,0,0,7.383721444901312
3,22,female,4,165,165,left,same,valid,anti,2,2.249413374422147,1,j,1,same,1.9070950583609374,1,0,0,0,0.38751638959365664,0,0,7.363391292412416
3,22,female,5,45,45,right,same,valid,anti,1,1.425358069325739,0,f,0,change,1.217353596986868,1,0,0,0,0.3874663548267563,0,0,5.574968760343836
3,22,female,6,135,135,right,same,valid,anti,1,1.641429365019576,0,f,0,change,2.2795965273289767,1,0,0,0,0.38742690433537064,0,0,7.45279155515891
3,22,female,7,15,15,right,same,valid,clock,1,1.9927972385939938,0,f,0,change,51.90758161440317,1,0,0,0,0.38750772972889536,0,0,57.09653085862192
3,22,female,8,75,75,right,same,valid,anti,3,2.857426570770258,1,f,0,change,1.168030221000663,1,0,0,0,0.38751350297388854,0,0,6.984842031257358
3,22,female,9,45,95,left,change,valid,clock,2,1.9454604994753026,1,f,1,change,0.9618327735424828,1,0,0,0,0.3874955417741148,0,0,6.098589019549763
3,22,female,10,45,75,right,same,catch,anti,1,1.2494133744221472,0,f,0,change,1.1806053052259813,0,0,0,0,0.38746026084845653,0,0,6.719895748070485
3,22,female,11,135,85,left,change,valid,anti,2,2.3122666647850565,1,f,1,change,0.9664350099683361,1,0,0,0,0.3875548778778466,0,0,6.112805308304814
3,22,female,12,75,25,left,change,valid,anti,2,2.0174630961500952,1,f,1,change,0.9861907248377975,1,0,0,0,0.38743909229197016,0,0,6.39610729506785
3,22,female,13,105,55,right,change,valid,anti,1,1.9934181828921282,0,f,1,change,1.6091989561991795,1,0,0,0,0.38741247122925415,0,0,7.1030655275844765
3,22,female,14,75,75,left,same,valid,clock,3,1.9694528120817267,1,f,0,change,1.1446123460154922,1,0,0,0,0.38754589727614075,0,0,6.027459465423817
3,22,female,15,45,355,left,change,valid,anti,1,2.9054503257393662,0,f,1,change,1.187428957044176,1,0,0,0,0.38745641201967373,0,0,7.292675808061176
3,22,female,16,105,105,right,same,valid,anti,2,1.4171366513655812,1,j,1,same,1.8380996795203828,1,0,0,0,0.3874147163805901,0,0,6.550278847609661
3,22,female,17,75,75,left,same,valid,anti,2,1.6013823066787154,1,j,1,same,3.0133993749495858,1,0,0,0,0.38746282673309906,0,0,8.005301119495925
3,22,female,18,105,155,left,change,valid,clock,2,2.1694555704089,1,f,1,change,0.8711133248998522,1,0,0,0,0.3874025284239906,0,0,6.544674312150164
3,22,female,19,135,135,left,same,valid,clock,1,1.8574721152399434,0,f,0,change,1.2882121294551325,1,0,0,0,0.3874156785859668,0,0,6.343866827975944
3,22,female,20,105,155,right,change,valid,clock,1,1.4414262859572773,0,f,1,change,1.6388160106125724,1,0,0,0,0.38754108624198125,0,0,6.536783572688364
3,22,female,21,15,65,left,change,valid,clock,2,1.393441660744429,1,j,0,same,1.4213469487767725,1,0,0,0,0.3874804671977472,0,0,6.039488336766226
3,22,female,22,165,215,right,change,valid,clock,2,1.5133958468577475,1,f,1,change,1.8848465857045085,1,0,0,0,0.387431073901098,0,0,6.848747142244974
3,22,female,23,105,105,left,same,valid,anti,1,1.0173534045461565,0,f,0,change,1.3322109722394089,1,0,0,0,0.38742690433537064,0,0,5.55859552406946
3,22,female,24,45,75,left,change,catch,clock,1,1.7533783090311772,0,f,1,change,1.7692059738947137,0,0,0,0,0.3875118992946227,0,0,8.622703853190615
3,22,female,25,105,55,left,change,valid,anti,1,2.4964754354950855,0,f,1,change,2.0536007071586937,1,0,0,0,0.38749618324436597,0,0,7.623913026745868
3,22,female,26,75,75,right,same,valid,clock,2,2.009359388190205,1,j,1,same,1.3943422865631874,1,0,0,0,0.3874111882869329,0,0,6.329911938808436
3,22,female,27,165,115,left,change,valid,anti,2,3.0094902483524493,1,f,1,change,1.3019178069898771,1,0,0,0,0.3875118992928037,0,0,7.113971182539899
3,22,female,28,135,185,right,change,valid,clock,1,1.3614960652139416,0,f,1,change,1.105107972462065,1,0,0,0,0.38741535785084125,0,0,5.944000831346784
3,22,female,29,135,85,right,change,valid,anti,2,1.8014694184930704,1,f,1,change,1.1669487002509413,1,0,0,0,0.3874426203838084,0,0,6.223310620969642
3,22,female,30,45,45,left,same,valid,clock,2,1.3374829047879757,1,f,0,change,1.5784740807066555,1,0,0,0,0.38753980329966,0,0,6.197725534922938
3,22,female,31,105,105,right,same,valid,clock,1,1.3374296626643627,0,f,0,change,1.3234337193280226,1,0,0,0,0.38749810766057635,0,0,5.923375922757259
3,22,female,32,45,95,right,change,valid,clock,1,2.1934526940513024,0,f,1,change,1.5011135943168483,1,0,0,0,0.3874006040095992,0,0,7.129782810619872
3,22,female,33,165,165,right,same,valid,clock,3,1.5374628908812156,1,f,0,change,1.1672065717448277,1,0,0,0,0.3875394825645344,0,0,5.663309312369165
3,22,female,34,45,45,right,same,valid,clock,2,2.713398925921865,1,f,0,change,2.2385760361685243,1,0,0,0,0.3874997113380232,0,0,8.143173846441641
3,22,female,35,135,185,left,change,valid,clock,1,2.7294337860421365,0,f,1,change,2.0466798724246473,1,0,0,0,0.38753916182758985,0,0,7.758448498829239
3,22,female,36,165,165,left,same,valid,clock,2,1.865383061051034,1,j,1,same,3.136884540283063,1,0,0,0,0.38746956218346895,0,0,7.836389516818599
3,22,female,37,15,325,left,change,valid,anti,1,1.745507775916849,0,f,1,change,1.2512758865777869,1,0,0,0,0.3874413374433061,0,0,6.21216762160293
3,22,female,38,15,65,right,change,valid,clock,1,1.8014152141622617,0,f,1,change,1.2585915469480824,1,0,0,0,0.3875006735452189,0,0,6.329948502676416
3,22,female,39,135,135,right,same,valid,clock,1,1.6974237226386322,0,f,0,change,1.2258200570140616,1,0,0,0,0.38747148659786035,0,0,6.394779770043897
3,22,female,40,45,45,left,same,valid,anti,2,1.7134544131949951,1,j,1,same,1.3126602074771654,1,0,0,0,0.38743139463440457,0,0,6.165462411059707
3,22,female,41,45,135,right,same,catch,clock,2,1.5292796404664841,1,f,0,change,2.5221281967715186,0,0,0,0,0.38748848558861937,0,0,8.887606516322194
3,22,female,42,165,355,right,change,catch,anti,2,2.032150866372831,1,j,0,same,1.9986234024163423,0,0,0,0,0.38749041000301077,0,0,8.88767098419521
3,22,female,43,165,215,left,change,valid,clock,1,1.4962326385775668,0,f,1,change,1.1599063066896633,1,0,0,0,0.38746859997627325,0,0,5.999429731942655
3,22,female,44,75,125,right,change,valid,clock,2,1.6813728257311595,1,j,0,same,3.4328260791462526,1,0,0,0,0.38752120062963513,0,0,8.423807632994794
3,22,female,45,15,15,left,same,valid,clock,1,1.473385031649741,0,f,0,change,1.0598784668327426,1,0,0,0,0.3874512802485697,0,0,5.862530437816531
3,22,female,46,45,355,right,change,valid,anti,1,1.6596673586009274,0,f,1,change,0.9939862057999562,1,0,0,0,0.3874233762435324,0,0,6.0510877430206165
3,22,female,47,15,325,right,change,valid,anti,2,1.3852770130015415,1,j,0,same,2.4619126367288118,1,0,0,0,0.38745737422686943,0,0,7.1968184943889355
3,22,female,48,15,125,left,same,catch,anti,1,1.8013687074853806,0,f,0,change,2.4581439923640573,0,0,0,0,0.3874560912827292,0,0,8.99688758085722
3,22,female,49,135,135,left,same,valid,anti,2,2.2244918905180384,1,f,0,change,2.016808795342513,1,0,0,0,0.38751254076669284,0,0,7.3454743552574655
3,22,female,50,105,105,left,same,catch,anti,1,1.6654319411682081,0,f,0,change,1.6219283142891072,0,0,0,0,0.3875025979596103,0,0,7.531243505103703
3,22,female,51,135,15,left,same,catch,anti,1,2.55209677750463,0,f,0,change,2.3686885630777397,0,0,0,0,0.3875042016370571,0,0,9.652240723682553
3,22,female,52,105,185,right,change,catch,anti,2,4.784485822199713,1,j,0,same,2.0558801757106266,0,0,0,0,0.38743620567220205,0,0,11.5085572282278
3,22,female,53,165,165,left,same,catch,clock,2,1.424417351543525,1,j,1,same,2.132566154943561,0,0,0,0,0.3874567327566183,0,0,8.389484744526271
3,22,female,54,15,15,right,same,valid,anti,1,2.176235922910564,0,f,0,change,1.7631235422559257,1,0,0,0,0.3874451862702699,0,0,7.037671369078453
3,22,female,55,15,15,left,same,valid,anti,2,2.001448121643989,1,f,0,change,2.2208213912745123,1,0,0,0,0.3874548083422269,0,0,7.168506513500688
3,22,female,56,75,25,right,change,valid,anti,1,1.6893642762024683,0,f,1,change,2.6389022885123268,1,0,0,0,0.3874795049887325,0,0,7.454670424833239
3,22,female,57,75,125,left,change,valid,clock,1,2.2013501689634722,0,f,1,change,2.64010536808928,1,0,0,0,0.3874625059979735,0,0,7.7255538463905395
3,22,female,58,105,105,left,same,valid,clock,1,3.1372581973628257,0,f,0,change,2.2720906706981623,1,0,0,0,0.387556802292238,0,0,8.593043820192179
3,22,female,1,15,15,left,same,valid,clock,2,3.520425410990356,1,f,0,change,1.341204401007417,1,0,0,0,0.38746314746822463,0,0,7.665531689968702
3,22,female,2,75,75,left,same,valid,clock,2,2.081437357754112,1,f,0,change,1.44269704076396,1,0,0,0,0.38746378894029476,0,0,6.846370170042064
3,22,female,3,105,105,left,same,valid,anti,2,1.633371522262678,1,j,1,same,1.5175378275671392,1,0,0,0,0.38754493506894505,0,0,6.141066292218966
3,22,female,4,165,355,right,change,catch,anti,1,1.857484944666794,0,f,1,change,0.9906399703395437,0,0,0,0,0.3875260116656136,0,0,7.468095137903219
3,22,female,5,135,185,right,change,valid,clock,2,2.5523132740945584,1,f,1,change,1.0745415404035157,1,0,0,0,0.3875070882586442,0,0,7.09512250820444
3,22,female,6,165,215,right,change,valid,clock,2,1.289364853526422,1,f,1,change,1.9732172868843918,1,0,0,0,0.38742465918585367,0,0,6.394974456610726
3,22,female,7,45,45,right,same,valid,clock,2,1.8974158966866526,1,j,1,same,1.3333059638880513,1,0,0,0,0.38748078793287277,0,0,6.478539574934985
3,22,female,8,165,165,right,same,valid,anti,1,2.1214517010539566,0,f,0,change,0.8813842439230939,1,0,0,0,0.38745929863944184,0,0,6.235051792400554
3,22,female,9,15,15,right,same,valid,anti,2,1.5373342758684885,1,j,1,same,1.8786660089444922,1,0,0,0,0.3874949003038637,0,0,6.777725034575269
3,22,female,10,15,15,left,same,valid,anti,2,1.98539081002491,1,j,1,same,1.7763894911586249,1,0,0,0,0.3875327471141645,0,0,6.790102224878865
3,22,female,11,105,155,right,change,valid,clock,2,1.37704565223612,1,j,0,same,1.5423929191820207,1,0,0,0,0.3874355642001319,0,0,5.802918823079381
3,22,female,12,45,45,left,same,valid,anti,3,1.2574667268800113,1,f,0,change,1.4649471170996549,1,0,0,0,0.3874641096772393,0,0,6.005812692923428
3,22,female,13,45,45,right,same,valid,anti,1,4.057439913376584,0,f,0,change,0.9117053131776629,1,0,0,0,0.38747437321762845,0,0,8.40680896212507
3,22,female,14,15,15,right,same,valid,clock,2,1.6254143905116507,1,j,1,same,1.165709377542953,1,0,0,0,0.3874737317455583,0,0,6.0217555019007705
3,22,female,15,45,95,right,change,valid,clock,2,3.473450782466898,1,f,1,change,1.3347338791827497,1,0,0,0,0.3874779013094667,0,0,8.150520297436742
3,22,female,16,105,105,right,same,valid,clock,3,4.961527753899645,1,f,0,change,1.0130237934554316,1,0,0,0,0.3874605815835821,0,0,9.342346540801373
3,22,female,17,45,135,right,same,catch,clock,2,4.5933805926688365,1,f,0,change,1.5046214805679483,0,0,0,0,0.38746667556188186,0,0,10.821888414770001
3,22,female,18,165,115,right,change,valid,anti,1,2.4162918335550785,0,f,1,change,1.2822162964512245,1,0,0,0,0.3874759768968943,0,0,6.984968721855694
3,22,female,19,135,135,left,same,valid,clock,2,1.561415752998073,1,j,1,same,1.1352898424283921,1,0,0,0,0.38749073073813634,0,0,5.8504037420880195
3,22,female,20,135,85,right,change,valid,anti,3,1.4014876362798532,1,f,1,change,1.0526410659713292,1,0,0,0,0.3874631474700436,0,0,5.815282542484056
3,22,female,21,135,15,left,same,catch,anti,2,2.3213992928413063,1,f,0,change,0.8928377154388727,0,0,0,0,0.3874387715568446,0,0,8.092098932847875
3,22,female,22,105,185,right,change,catch,anti,1,0.9684181187440117,0,f,1,change,0.8019585404217651,0,0,0,0,0.3874217725642666,0,0,6.330046327064338
3,22,female,23,105,105,right,same,valid,anti,2,1.344243371677294,1,f,0,change,0.8033547028826433,1,0,0,0,0.3874217725642666,0,0,5.385490302234757
3,22,female,24,165,165,left,same,catch,clock,1,1.6815117042860948,0,f,0,change,0.8698351931725483,0,0,0,0,0.38747244880323706,0,0,7.031409325454661
3,22,female,25,75,75,right,same,valid,anti,3,1.6803926574630168,1,j,1,same,1.1188906265633705,1,0,0,0,0.3875394825645344,0,0,6.149271031921671
3,22,female,26,105,155,left,change,valid,clock,1,2.7933278637210606,0,f,1,change,1.6597715977004555,1,0,0,0,0.3874615437907778,0,0,7.617488690859318
3,22,female,27,75,125,left,change,valid,clock,1,1.8414539333753055,0,f,1,change,1.5066658498599281,1,0,0,0,0.38740669798607996,0,0,6.203290940627994
3,22,female,28,165,215,left,change,valid,clock,2,2.1054197275534534,1,f,1,change,1.5541408260614844,1,0,0,0,0.38744101670636155,0,0,6.8970919536404836
3,22,female,29,45,355,right,change,valid,anti,2,1.9133660825864354,1,f,1,change,1.9431909737268143,1,0,0,0,0.38744101670636155,0,0,6.808623748811442
3,22,female,30,15,65,right,change,valid,clock,3,1.4654185985637014,1,f,1,change,0.8839000946809392,1,0,0,0,0.38749361735972343,0,0,5.142134021332822
3,22,female,31,15,325,left,change,valid,anti,1,1.561312155368796,0,f,1,change,0.778295302632614,1,0,0,0,0.38740958460948605,0,0,5.368593946050169
3,22,female,32,75,25,left,change,valid,anti,1,1.305405166154742,0,f,1,change,1.722647660297298,1,0,0,0,0.38739162340971234,0,0,6.047934269710822
3,22,female,33,75,25,right,change,valid,anti,2,1.3534263552373886,1,f,1,change,0.971393263011123,1,0,0,0,0.38744935583599727,0,0,5.546349514663234
3,22,female,34,135,185,left,change,valid,clock,3,2.7374197840035777,1,f,1,change,0.9755868821666809,1,0,0,0,0.38749810765875736,0,0,6.415264837874929
3,22,female,35,45,95,left,change,valid,clock,2,1.769318231385114,1,f,1,change,0.960942090528988,1,0,0,0,0.38745609128454817,0,0,5.818327927867358
3,22,female,36,135,135,right,same,valid,anti,3,1.369463460507177,1,j,1,same,0.8222011320685851,1,0,0,0,0.38750869193609105,0,0,5.2141353350652935
3,22,female,37,105,105,left,same,valid,clock,2,1.6654669013587409,1,f,0,change,1.1055262118024984,1,0,0,0,0.38747052439066465,0,0,5.4903827403140895
3,22,female,38,135,85,left,change,valid,anti,2,1.3934317179373465,1,f,1,change,0.9568385981019674,1,0,0,0,0.3874111882869329,0,0,5.518483677118638
3,22,female,39,75,75,left,same,valid,anti,2,1.937469690476064,1,f,0,change,1.1501822420195822,1,0,0,0,0.3875157481234055,0,0,6.073987629866679
3,22,female,40,165,115,left,change,valid,anti,2,2.2893969270953676,1,f,1,change,1.6818597025103372,1,0,0,0,0.3874336397857405,0,0,7.332514067467855
3,22,female,41,15,125,left,same,catch,anti,1,2.0653543872795126,0,f,0,change,1.3266401140281232,0,0,0,0,0.38744390332794865,0,0,7.6864449399454315
3,22,female,42,45,75,left,change,catch,clock,1,1.5761782546342147,0,f,1,change,2.1373775110387214,0,0,0,0,0.3874621852628479,0,0,8.622594803055108
3,22,female,43,45,75,right,same,catch,anti,2,1.2404654901220056,1,f,0,change,1.7065265222772723,0,0,0,0,0.38751446517926524,0,0,7.593674707297396
3,22,female,44,165,165,left,same,valid,anti,1,1.3124902175604802,0,f,0,change,0.91468206112404,1,0,0,0,0.3874509595134441,0,0,5.1040011135955865
3,22,female,45,165,165,left,same,valid,clock,1,1.673425636787215,0,f,0,change,2.0083497122359404,1,0,0,0,0.3874846367598366,0,0,6.769370832040295
3,22,female,46,45,45,left,same,valid,clock,2,2.417451934548808,1,f,0,change,1.9448427625338809,1,0,0,0,0.38747341101225174,0,0,7.573920916842326
3,22,female,47,105,125,right,same,catch,anti,2,1.58544430873917,1,f,0,change,1.1160742464653595,0,0,0,0,0.3874509595116251,0,0,7.266165720282515
3,22,female,48,165,165,right,same,valid,clock,2,2.7443329210800584,1,j,1,same,1.2113122195150936,1,0,0,0,0.3874435825910041,0,0,6.775475394440946
3,22,female,49,15,325,right,change,valid,anti,2,1.5054172258151084,1,f,1,change,0.9296260991613963,1,0,0,0,0.3874426203856274,0,0,5.556034770314
3,22,female,50,105,55,right,change,valid,anti,3,1.3533811315046478,1,f,1,change,1.8993582720304403,1,0,0,0,0.38741792373730277,0,0,6.07982918900052
3,22,female,51,105,55,left,change,valid,anti,2,1.569483217826928,1,j,0,same,1.265626884322046,1,0,0,0,0.3874557705476036,0,0,5.939578848379824
3,22,female,52,135,135,left,same,valid,anti,1,2.161297658116382,0,f,0,change,1.3401745187038614,1,0,0,0,0.38747437321762845,0,0,6.7223573944957025
3,22,female,53,15,65,left,change,valid,clock,1,2.753275032137026,0,f,1,change,2.8920958537855768,1,0,0,0,0.38741792373730277,0,0,8.773461495038646
3,22,female,54,135,135,right,same,valid,clock,2,1.8093165379032143,1,j,1,same,0.8710915148731146,1,0,0,0,0.38756963171908865,0,0,5.869083067978863
3,22,female,55,105,105,left,same,catch,anti,2,2.617002776287336,1,f,0,change,3.5138188972341595,0,0,0,0,0.38742305550840683,0,0,10.541336095080624
3,22,female,56,45,355,left,change,valid,anti,1,1.264527081639244,0,f,1,change,1.1231548075720639,1,0,0,0,0.38741824447242834,0,0,6.031142794096013
3,22,female,57,75,125,right,change,valid,clock,2,3.2334558116035623,1,f,1,change,0.8801878997983295,1,0,0,0,0.387448072891857,0,0,7.39203010296842
3,22,female,58,75,75,right,same,valid,clock,2,1.4795607973737788,1,j,1,same,0.9986282134505018,1,0,0,0,0.38736468161187076,0,0,5.644616194842456
3,22,female,1,45,355,right,change,valid,anti,2,2.320259077461742,1,f,1,change,0.7552764228476008,1,0,0,0,0.38750580531450396,0,0,6.217490551127412
3,22,female,2,165,165,left,same,valid,anti,2,1.8814323542756028,1,j,1,same,1.325696509626141,1,0,0,0,0.38746956218346895,0,0,6.250554552008907
3,22,female,3,105,185,right,change,catch,anti,1,1.921441245069218,0,f,1,change,0.7225806265378196,0,0,0,0,0.3873864916386083,0,0,7.592592224340478
3,22,female,4,15,15,left,same,valid,clock,2,1.5444254212543456,1,j,1,same,1.1459988864062325,1,0,0,0,0.3874891270606895,0,0,6.122856844114722
3,22,female,5,75,25,right,change,valid,anti,2,1.7053972119101672,1,f,1,change,1.1535826818126225,1,0,0,0,0.3874718073329859,0,0,6.2221665567612945
3,22,female,6,15,325,right,change,valid,anti,2,1.5373336343982373,1,f,1,change,0.9081874841231183,1,0,0,0,0.38744582774234004,0,0,5.748673116446298
3,22,female,7,105,125,right,same,catch,anti,2,1.3054195992608584,1,f,0,change,0.9481896394681826,0,0,0,0,0.3873871331106784,0,0,6.73573078985828
3,22,female,8,15,65,right,change,valid,clock,2,1.0802153547720081,1,f,1,change,0.8535193685856939,1,0,0,0,0.3874785427833558,0,0,5.041309153282782
3,22,female,9,45,45,left,same,valid,clock,2,1.4254311970616982,1,f,0,change,0.852132507461647,1,0,0,0,0.3874432618558785,0,0,5.48956261915373
3,22,female,10,105,155,left,change,valid,clock,1,1.2014736522032763,0,f,1,change,1.2269743847646168,1,0,0,0,0.38755263272651064,0,0,5.4365847807057435
3,22,female,11,45,75,left,change,catch,clock,1,1.433442533145353,0,f,1,change,1.33231296618942,0,0,0,0,0.38738777458274853,0,0,7.858511298876692
3,22,female,12,45,95,left,change,valid,clock,2,1.5676322521539987,1,f,1,change,1.6238601053555612,1,0,0,0,0.3874455070053955,0,0,6.135486774142919
3,22,female,13,75,75,left,same,valid,clock,1,1.489382365696656,0,f,0,change,1.093613126044147,1,0,0,0,0.38749169294533203,0,0,5.875065109345087
3,22,female,14,45,355,left,change,valid,anti,2,2.0893726794784016,1,f,1,change,1.1283914591931534,1,0,0,0,0.3874185652075539,0,0,6.7603061999489
3,22,female,15,105,105,right,same,valid,clock,2,1.3773894808964542,1,j,1,same,0.910808856924632,1,0,0,0,0.3874663548249373,0,0,5.068477390699627
3,22,female,16,15,65,left,change,valid,clock,1,2.121369271981166,0,f,1,change,1.4276510087765928,1,0,0,0,0.3875195969503693,0,0,6.261654572794214
3,22,female,17,45,95,right,change,valid,clock,2,1.1374833538175153,1,f,1,change,1.075783749733091,1,0,0,0,0.3874788635184814,0,0,5.075708697580922
3,22,female,18,75,75,right,same,valid,clock,3,3.001356391236186,1,j,1,same,1.6163722099208826,1,0,0,0,0.3874435825910041,0,0,8.044417082126529
3,22,female,19,105,105,right,same,valid,anti,2,1.2174680996286043,1,f,0,change,1.0639431502386287,1,0,0,0,0.3875475009554066,0,0,5.802026215653314
3,22,female,20,165,165,right,same,valid,clock,3,1.6413668215609505,1,f,0,change,1.5898576318413689,1,0,0,0,0.38744197891355725,0,0,6.685684796357236
3,22,female,21,75,75,left,same,valid,anti,4,2.3133507514194207,1,f,0,change,0.810163600861415,1,0,0,0,0.3874346019929362,0,0,6.207602590517126
3,22,female,22,165,165,left,same,valid,clock,2,2.3454336218237586,1,j,1,same,1.1773652332776692,1,0,0,0,0.38756578289030585,0,0,6.533687190330966
3,22,female,23,135,135,right,same,valid,clock,2,2.2173760484856757,1,j,1,same,2.5736883834670152,1,0,0,0,0.38755648155529343,0,0,7.627140590000636
3,22,female,24,105,105,left,same,valid,clock,3,3.705437945340236,1,f,0,change,1.0728541499356652,1,0,0,0,0.38748303308238974,0,0,7.718183340219184
3,22,female,25,135,135,left,same,valid,clock,3,1.705359685833173,1,j,1,same,1.4653358487557853,1,0,0,0,0.3874326775785448,0,0,6.370662370518403
3,22,female,26,165,215,left,change,valid,clock,1,2.0094783811309753,0,f,1,change,1.136014063618859,1,0,0,0,0.387448072891857,0,0,6.444659943190345
3,22,female,27,15,15,right,same,valid,clock,3,1.9533159580114443,1,j,1,same,1.2089897723799368,1,0,0,0,0.38748078793287277,0,0,5.840616171750298
3,22,female,28,45,45,right,same,valid,clock,4,1.5454466436931398,1,j,1,same,1.1589639852300024,1,0,0,0,0.38738681237555284,0,0,5.9490690967304545
3,22,female,29,15,15,right,same,valid,anti,3,1.3373914951152983,1,j,1,same,1.1038882146312972,1,0,0,0,0.3875032394298614,0,0,5.956357494565964
3,22,female,30,165,215,right,change,valid,clock,2,1.4094787660142174,1,f,1,change,1.4370745441065083,1,0,0,0,0.3874461484774656,0,0,6.155996538620457
3,22,female,31,165,355,right,change,catch,anti,2,2.001435612952264,1,f,1,change,0.8965146293958242,0,0,0,0,0.38745416687015677,0,0,7.921239823055657
3,22,female,32,135,185,right,change,valid,clock,2,1.9683796304616408,1,f,1,change,1.093777342717658,1,0,0,0,0.38742497992097924,0,0,6.130161599470739
3,22,female,33,45,75,right,same,catch,anti,1,3.8254165073667536,0,f,0,change,1.7452428482356481,0,0,0,0,0.3874102260797372,0,0,10.291789615346715
3,22,female,34,75,125,right,change,valid,clock,2,2.168360899497202,1,f,1,change,0.9991122036080924,1,0,0,0,0.38741407490852,0,0,6.172538481867377
3,22,female,35,105,105,left,same,valid,anti,2,1.3613565451887553,1,f,0,change,1.5499186614288192,1,0,0,0,0.3875215213647607,0,0,5.9768541088815255
3,22,female,36,15,15,left,same,valid,anti,2,1.4334325903382705,1,f,0,change,1.759641314862165,1,0,0,0,0.38744871436392714,0,0,6.481139137707942
3,22,female,37,165,165,left,same,catch,clock,2,1.1855375786763034,1,f,0,change,1.0599095781944925,0,0,0,0,0.3874281872776919,0,0,7.1414681740388914
3,22,female,38,105,155,right,change,valid,clock,2,1.9924441085986473,1,f,1,change,1.343199056267622,1,0,0,0,0.3875327471141645,0,0,6.123930667206878
3,22,female,39,75,125,left,change,valid,clock,2,0.8654199456541392,1,f,1,change,1.2335231660981663,1,0,0,0,0.3875054845793784,0,0,5.303092341087904
3,22,female,40,135,15,left,same,catch,anti,1,1.7134784683712496,0,f,0,change,1.1298899363409873,0,0,0,0,0.38750195648754016,0,0,7.702750821725203
3,22,female,41,165,115,right,change,valid,anti,1,1.496344896067967,0,f,1,change,1.1759806172995013,1,0,0,0,0.38750131501547,0,0,5.665782505278912
3,22,female,42,105,55,right,change,valid,anti,1,1.4253449191619438,0,f,1,change,1.1446633429895883,1,0,0,0,0.38743813008477446,0,0,5.873874859196803
3,22,female,43,15,125,left,same,catch,anti,1,1.4894073830782872,0,f,0,change,0.9392985253853112,0,0,0,0,0.3874798257256771,0,0,7.437666301455465
3,22,female,44,45,45,right,same,valid,anti,3,1.512283856218346,1,j,1,same,1.1404350843786233,1,0,0,0,0.3875340300564858,0,0,6.172043265960383
3,22,female,45,15,325,left,change,valid,anti,3,1.3533862632757518,1,j,0,same,1.9527283702263958,1,0,0,0,0.3874083016653458,0,0,6.66432508230173
3,22,female,46,105,105,left,same,catch,anti,2,1.7214336757078854,1,f,0,change,1.1314592960734444,0,0,0,0,0.38742786654256633,0,0,7.656303161940741
3,22,female,47,105,55,left,change,valid,anti,1,1.536444875797315,0,f,1,change,1.7064030390356493,1,0,0,0,0.3874804671977472,0,0,6.173313379296815
3,22,female,48,75,25,left,change,valid,anti,2,1.9374498048655369,1,f,1,change,0.8492381885880604,1,0,0,0,0.38746026084845653,0,0,6.02637152996067
3,22,female,49,135,185,left,change,valid,clock,1,1.6093846621624834,0,f,1,change,0.8395086714099307,1,0,0,0,0.3874766183689644,0,0,5.163279804684862
3,22,female,50,165,115,left,change,valid,anti,1,1.4495024106490746,0,f,1,change,1.0287677463056752,1,0,0,0,0.38745609128454817,0,0,5.238577319110846
3,22,female,51,135,135,right,same,valid,anti,3,1.441417626094335,1,j,1,same,0.6254528787940217,1,0,0,0,0.38745737422505044,0,0,5.579572600447136
3,22,female,52,75,75,right,same,valid,anti,2,1.401443374754308,1,j,1,same,0.9663699006232491,1,0,0,0,0.38736788896858343,0,0,5.305342301959172
3,22,female,53,135,135,left,same,valid,anti,3,2.377382103974014,1,j,1,same,1.4352655948114261,1,0,0,0,0.3874159993210924,0,0,6.784359773073447
3,22,female,54,135,85,left,change,valid,anti,2,2.185429811484937,1,f,1,change,1.1844172489090852,1,0,0,0,0.38754108624198125,0,0,6.356937128106438
3,22,female,55,135,85,right,change,valid,anti,3,3.5935294140290353,1,f,1,change,1.1208134370281186,1,0,0,0,0.38749041000301077,0,0,7.438729219535162
3,22,female,56,45,45,left,same,valid,anti,1,1.609462600934421,0,f,0,change,0.8509971031162422,1,0,0,0,0.3875356337357516,0,0,5.788205073267818
3,22,female,57,165,165,right,same,valid,anti,3,0.9375078580251284,1,j,1,same,1.1226634404938522,1,0,0,0,0.38749233441740216,0,0,4.919430873760575
3,22,female,58,45,135,right,same,catch,clock,1,2.833451898626663,0,f,0,change,2.1137578933048644,0,0,0,0,0.38748271234726417,0,0,9.68333669036656
3,22,female,1,135,135,left,same,valid,anti,1,1.2644443318313279,0,f,0,change,0.5534162841358921,1,0,0,0,0.38740766019509465,0,0,5.193455901408015
3,22,female,2,135,15,left,same,catch,anti,1,1.3054571253360336,0,f,0,change,1.0358274595928378,0,0,0,0,0.3874025284239906,0,0,7.0944107957075175
3,22,female,3,165,355,right,change,catch,anti,1,1.9047661965105362,0,f,1,change,0.9916050640313188,0,0,0,0,0.3874224140363367,0,0,7.250947132495639
3,22,female,4,135,85,left,change,valid,anti,2,1.4561102073494112,1,f,1,change,1.1817051079087832,1,0,0,0,0.3874965039813105,0,0,5.555933738573003
3,22,female,5,165,215,right,change,valid,clock,2,1.225452173177473,1,f,1,change,1.0078259508536576,1,0,0,0,0.38752376651427767,0,0,5.608720097812693
3,22,female,6,75,125,left,change,valid,clock,2,1.0894377888216695,1,f,1,change,2.020935701473718,1,0,0,0,0.3873826428116445,0,0,6.422725150039696
3,22,female,7,15,65,right,change,valid,clock,2,3.0894842954967316,1,f,1,change,1.0729551816784806,1,0,0,0,0.38748880632374494,0,0,7.713852125451012
3,22,female,8,75,75,right,same,valid,clock,3,2.2734432131037465,1,j,1,same,0.9345109037294606,1,0,0,0,0.38748848558861937,0,0,6.607022123063871
3,22,female,9,75,75,left,same,valid,anti,3,1.8493732183123939,1,j,1,same,1.767248844709684,1,0,0,0,0.38749425883179356,0,0,7.014614642483139
3,22,female,10,45,95,right,change,valid,clock,2,1.169374103543305,1,f,1,change,1.127511681193937,1,0,0,0,0.38753916182758985,0,0,5.423910909888946
3,22,female,11,15,15,right,same,valid,clock,3,2.4573880183397705,1,j,1,same,1.8951656150820781,1,0,0,0,0.38744486553514434,0,0,7.962692024459102
3,22,female,12,75,75,left,same,valid,clock,2,2.2345969891903223,1,f,0,change,0.9936962607334863,1,0,0,0,0.38743235684160027,0,0,6.03739970595052
3,22,female,13,15,15,right,same,valid,anti,3,2.217454949464809,1,j,1,same,0.7321674163322314,1,0,0,0,0.3874403752342914,0,0,6.055066469263693
3,22,female,14,75,125,right,change,valid,clock,2,2.4174246720158408,1,f,1,change,0.724823531223592,1,0,0,0,0.38742497992097924,0,0,6.3134055972241185
3,22,female,15,45,45,left,same,valid,clock,3,1.7854422560285457,1,j,1,same,0.9258651524505694,1,0,0,0,0.3875523119895661,0,0,5.705583880080667
3,22,female,16,165,115,right,change,valid,anti,2,1.7053365928622952,1,f,1,change,0.872659912402014,1,0,0,0,0.3874432618558785,0,0,5.394466732010187
3,22,female,17,135,135,left,same,valid,clock,2,1.889486348205537,1,f,0,change,1.156027329247081,1,0,0,0,0.38744967656930385,0,0,5.939434838053785
3,22,female,18,135,135,right,same,valid,anti,3,1.5533553443547135,1,j,1,same,0.9043710501391615,1,0,0,0,0.3874121504941286,0,0,5.577767499980837
3,22,female,19,165,165,right,same,valid,anti,4,0.9774057742688456,1,j,1,same,0.8858081513062643,1,0,0,0,0.38747533542482415,0,0,4.679564197173022
3,22,female,20,105,105,left,same,valid,anti,2,1.8173981151012413,1,f,0,change,1.1929321400257322,1,0,0,0,0.38746571335468616,0,0,5.726141434175588
3,22,female,21,105,105,right,same,valid,anti,3,1.8574977740954637,1,j,1,same,1.1243986205790861,1,0,0,0,0.3875532741967618,0,0,6.208020509122434
3,22,female,22,15,325,right,change,valid,anti,2,1.5854750993639755,1,f,1,change,0.9629126906129386,1,0,0,0,0.38746026084845653,0,0,5.917896794951957
3,22,female,23,105,55,right,change,valid,anti,2,1.2804708528237825,1,f,1,change,0.9988075047021994,1,0,0,0,0.3874493558341783,0,0,5.196050653146813
3,22,female,24,45,45,right,same,valid,anti,3,1.2494412784253655,1,j,1,same,1.1311103356438252,1,0,0,0,0.38746378894029476,0,0,5.680472520649346
3,22,female,25,165,165,left,same,catch,clock,2,1.9453046219296084,1,f,0,change,1.7408160542327096,0,0,0,0,0.387474693952754,0,0,8.685121263750261
3,22,female,26,105,185,right,change,catch,anti,2,1.9520939550311596,1,f,1,change,0.8489270749669231,0,0,0,0,0.387501315017289,0,0,7.500129897953229
3,22,female,27,135,185,right,change,valid,clock,2,2.5444507593747403,1,f,1,change,0.6917819818390853,1,0,0,0,0.3874702036555391,0,0,6.692735529046331
3,22,female,28,135,85,right,change,valid,anti,2,1.833410523722705,1,f,1,change,0.9211939578526653,1,0,0,0,0.387467317033952,0,0,5.663034121145756
3,22,female,29,75,75,right,same,valid,anti,3,1.2493947717521223,1,j,1,same,1.1543902942812565,1,0,0,0,0.3875263324007392,0,0,5.295047648494801
3,22,female,30,105,55,left,change,valid,anti,2,1.8891024275853852,1,f,1,change,0.9550132912881963,1,0,0,0,0.38747244880323706,0,0,6.277273117986624
3,22,female,31,15,125,left,same,catch,anti,2,1.289442471565053,1,f,0,change,1.2255743734749558,0,0,0,0,0.3875208798926906,0,0,6.72012250820444
3,22,female,32,75,25,left,change,valid,anti,2,2.2165155146267352,1,f,1,change,0.9576263249582553,1,0,0,0,0.3874698829185945,0,0,6.2560946195935685
3,22,female,33,45,355,right,change,valid,anti,2,1.6654531097246945,1,f,1,change,0.9083796048034856,1,0,0,0,0.3875042016370571,0,0,5.727069963999384
3,22,female,34,15,65,left,change,valid,clock,3,1.7693859066166624,1,f,1,change,1.5234400057470339,1,0,0,0,0.3875016357524146,0,0,6.024592088349891
3,22,female,35,165,165,right,same,valid,clock,4,1.1854743937437888,1,j,1,same,1.0086008482812758,1,0,0,0,0.3874483936269826,0,0,5.297195294679113
3,22,female,36,15,15,left,same,valid,clock,1,1.1934013763420808,0,f,0,change,1.734542464122569,1,0,0,0,0.38745063877831853,0,0,6.503607635047956
3,22,female,37,165,165,left,same,valid,clock,1,0.993450897933144,0,f,0,change,1.2538966179072304,1,0,0,0,0.3874923344155832,0,0,5.701743711655581
3,22,female,38,45,95,left,change,valid,clock,1,1.6251359919333481,0,f,1,change,1.0130343777345843,1,0,0,0,0.3874464692125912,0,0,5.894499767788147
3,22,female,39,45,75,right,same,catch,anti,1,3.217412933088781,0,j,1,same,2.209496214034516,0,0,0,0,0.38744678994953574,0,0,10.369755650721345
3,22,female,40,105,155,right,change,valid,clock,2,1.2117455334337137,1,f,1,change,0.9868732503873616,1,0,0,0,0.38745833643406513,0,0,5.0452833892268245
3,22,female,41,165,165,left,same,valid,anti,2,1.273445778990208,1,j,1,same,0.8081843409127032,1,0,0,0,0.38745160098369524,0,0,5.652927739531151
3,22,female,42,105,155,left,change,valid,clock,3,1.873401774053491,1,j,0,same,1.2147100934234913,1,0,0,0,0.3874596193763864,0,0,5.9807167288036
3,22,female,43,45,75,left,change,catch,clock,1,1.377489550430255,0,f,1,change,1.063658978418971,0,0,0,0,0.3874349227280618,0,0,7.35977499749788
3,22,female,44,105,105,right,same,valid,clock,4,3.4402546384790185,1,j,1,same,1.1117388621332793,1,0,0,0,0.38741920667962404,0,0,7.495846472806079
3,22,female,45,45,45,left,same,valid,anti,2,2.105387653984508,1,j,1,same,1.6625215855128772,1,0,0,0,0.387428828751581,0,0,7.046916896098992
3,22,female,46,165,115,left,change,valid,anti,1,1.4894856425871694,0,f,1,change,1.0406766625019372,1,0,0,0,0.38750099428034446,0,0,5.321709123518303
3,22,female,47,15,325,left,change,valid,anti,2,1.025413813187697,1,f,1,change,0.8500021810014005,1,0,0,0,0.387510937085608,0,0,5.329000407977219
3,22,female,48,45,355,left,change,valid,anti,1,0.9694537742889224,0,f,1,change,0.7358433680838061,1,0,0,0,0.3874483936269826,0,0,4.791845102623483
3,22,female,49,165,215,left,change,valid,clock,1,0.8574432490258914,0,f,1,change,0.4908635231149674,1,0,0,0,0.38751927621524374,0,0,4.193858103964885
3,22,female,50,105,105,left,same,valid,clock,1,0.9133891755554941,0,f,0,change,1.6663854883772728,1,0,0,0,0.38751638959365664,0,0,5.4681971318514115
3,22,female,51,75,25,right,change,valid,anti,3,0.9054387792530179,1,f,1,change,0.9852795147398865,1,0,0,0,0.38744005449916585,0,0,5.063167290603815
3,22,female,52,105,125,right,same,catch,anti,1,0.9454508774033457,0,f,0,change,0.791872044421325,0,0,0,0,0.3874512802485697,0,0,6.4237261661310185
3,22,female,53,105,105,left,same,catch,anti,2,1.8164298140509345,1,f,0,change,1.4471777183625818,0,0,0,0,0.38746667556188186,0,0,8.108611368412312
3,22,female,54,15,15,left,same,valid,anti,2,2.1600458267166687,1,f,0,change,1.1392021763840603,1,0,0,0,0.38743524346318736,0,0,6.368946434573445
3,22,female,55,45,135,right,same,catch,clock,2,1.2974688822232565,1,j,1,same,2.0229572985317645,0,0,0,0,0.38748207087337505,0,0,8.030350256203747
3,22,female,56,135,185,left,change,valid,clock,2,2.0004833486873395,1,f,1,change,0.9618719032969238,1,0,0,0,0.38751254076487385,0,0,6.191088551275243
3,22,female,57,45,45,right,same,valid,clock,3,1.2974894093076728,1,j,1,same,0.5636525637037266,1,0,0,0,0.38747052438884566,0,0,5.16502139948534
3,22,female,58,135,135,right,same,valid,clock,4,1.251667825592449,1,j,1,same,0.9947501982151152,1,0,0,0,0.3874387715568446,0,0,5.184323594086891
3,22,female,1,135,85,right,change,valid,anti,2,3.1204801926451182,1,f,1,change,0.9486636868186906,1,0,0,0,0.38752023842243943,0,0,7.4174063900809415
3,22,female,2,75,75,right,same,valid,anti,3,1.9694589060600265,1,j,1,same,0.6590890721508913,1,0,0,0,0.3874208103570709,0,0,5.726874635965942
3,22,female,3,45,355,right,change,valid,anti,2,1.3934657159206836,1,f,1,change,0.9008474478414428,1,0,0,0,0.38745224245576537,0,0,5.128504037420498
3,22,female,4,45,45,left,same,valid,clock,3,1.3854261550968658,1,j,1,same,1.341477988549741,1,0,0,0,0.3874272250723152,0,0,5.634417441349797
3,22,female,5,165,115,left,change,valid,anti,3,1.369415350152849,1,f,1,change,0.9024447115807561,1,0,0,0,0.3874099053446116,0,0,5.569237534286003
3,22,female,6,165,215,right,change,valid,clock,2,2.5774422739905276,1,f,1,change,1.6674083144953329,1,0,0,0,0.3874195274165686,0,0,6.91921020760492
3,22,female,7,45,45,left,same,valid,anti,4,1.8174940150729526,1,j,1,same,1.0270293588619097,1,0,0,0,0.38743139463622356,0,0,5.5590657225911855
3,22,female,8,165,165,right,same,valid,anti,3,1.6734737471433618,1,j,1,same,1.0059627972259477,1,0,0,0,0.3874795049905515,0,0,5.940154568945218
3,22,female,9,135,185,right,change,valid,clock,2,2.201441899371275,1,f,1,change,0.9818271157655545,1,0,0,0,0.3874474314197869,0,0,6.60314507003568
3,22,female,10,75,75,left,same,valid,anti,4,1.2414254520444956,1,j,1,same,1.3072875639227277,1,0,0,0,0.38747148659604136,0,0,5.666444824481005
3,22,female,11,45,75,right,same,catch,anti,2,2.2174517421080964,1,f,0,change,0.7491259952421387,0,0,0,0,0.3874836745526409,0,0,7.921358174526176
3,22,female,12,15,325,left,change,valid,anti,2,1.9762360512031591,1,j,0,same,1.4936093413634808,1,0,0,0,0.38741343343826884,0,0,6.485059169319356
3,22,female,13,135,85,left,change,valid,anti,2,1.0654211003020464,1,f,1,change,1.5759614373073418,1,0,0,0,0.38743139463440457,0,0,5.768653346300198
3,22,female,14,105,105,right,same,valid,anti,3,1.553411152364788,1,j,1,same,0.5254420379296789,1,0,0,0,0.387503560164987,0,0,5.5800597979614395
3,22,female,15,135,135,right,same,valid,clock,4,1.1134737214833876,1,j,1,same,0.5671303008002724,1,0,0,0,0.38747629763383884,0,0,4.601636970817708
3,22,female,16,135,135,left,same,valid,anti,3,2.2414264142516913,1,f,0,change,1.4335265658955905,1,0,0,0,0.3874519217206398,0,0,6.870383009732905
3,22,female,17,135,135,left,same,valid,clock,3,1.457584308584046,1,j,1,same,1.0370103328223195,1,0,0,0,0.3874663548249373,0,0,5.189183381271505
3,22,female,18,45,45,right,same,valid,clock,3,1.969287633202839,1,j,1,same,0.7990257332658075,1,0,0,0,0.3875138237071951,0,0,6.232695668015367
3,22,female,19,45,45,right,same,valid,anti,4,1.2333781935649313,1,j,1,same,1.012474693952754,1,0,0,0,0.3874653926195606,0,0,5.0550600545502675
3,22,female,20,165,165,left,same,catch,clock,3,1.1132447161999153,1,f,0,change,1.0433124684077484,0,0,0,0,0.387493938094849,0,0,7.219208732221887
3,22,female,21,105,105,left,same,valid,anti,1,1.16781276220172,0,f,0,change,0.7392774851250579,1,0,0,0,0.38747437321762845,0,0,4.5511868503508595
3,22,female,22,135,15,left,same,catch,anti,1,0.8573492734703905,0,f,0,change,1.1558643955158914,0,0,0,0,0.38747437321762845,0,0,6.59527806501319
3,22,female,23,15,65,left,change,valid,clock,2,1.3683594882604666,1,f,1,change,0.9594830638725398,1,0,0,0,0.3874756561599497,0,0,5.946052577559385
3,22,female,24,75,25,left,change,valid,anti,1,1.0014064260030864,0,f,1,change,0.746044687461108,1,0,0,0,0.3874455070053955,0,0,4.784973340449142
3,22,female,25,15,65,right,change,valid,clock,2,0.833442276556525,1,f,1,change,0.7172913742615492,1,0,0,0,0.38747244880323706,0,0,4.786322996234958
3,22,female,26,15,125,left,same,catch,anti,1,0.913422532066761,0,f,0,change,0.9582277043791692,0,0,0,0,0.38745224245576537,0,0,6.3612490987325145
3,22,female,27,105,105,left,same,valid,clock,1,6.016345653006283,0,f,0,change,4.422789938649657,1,0,0,0,0.38748207087519404,0,0,13.73282588670736
3,22,female,28,105,55,left,change,valid,anti,2,1.649441984045552,1,f,1,change,0.8358846788396477,1,0,0,0,0.38749906986595306,0,0,5.56412147928495
3,22,female,29,15,15,left,same,valid,clock,2,1.409184009915407,1,f,0,change,0.6447454513272532,1,0,0,0,0.38744775215491245,0,0,5.001632865400097
3,22,female,30,45,355,left,change,valid,anti,2,1.6813372240703757,1,j,0,same,0.9813658978418971,1,0,0,0,0.3874804671959282,0,0,5.664244256906386
3,22,female,31,15,325,right,change,valid,anti,2,1.6575357492001785,1,f,1,change,1.0768431397191307,1,0,0,0,0.38748591970397683,0,0,5.528303641760431
3,22,female,32,165,115,right,change,valid,anti,3,1.2654588188215712,1,f,1,change,1.273914053097542,1,0,0,0,0.38755648155529343,0,0,5.996770191593896
3,22,female,33,165,165,left,same,valid,clock,1,1.209488837115714,0,f,0,change,0.7906025725569634,1,0,0,0,0.3874519217206398,0,0,5.405020860649529
3,22,female,34,105,155,left,change,valid,clock,1,1.4094171847609687,0,f,1,change,1.2032335289386538,1,0,0,0,0.38742497992097924,0,0,5.598178798600202
3,22,female,35,75,75,right,same,valid,clock,3,1.27339766863588,1,j,1,same,1.900522542588078,1,0,0,0,0.3874413374414871,0,0,6.611685620007847
3,22,female,36,75,25,right,change,valid,anti,3,1.2654075011087116,1,f,1,change,2.4058101911850827,1,0,0,0,0.3874775805761601,0,0,6.80500777463385
3,22,female,37,135,185,left,change,valid,clock,3,1.4735479653809307,1,f,1,change,1.0023330314143095,1,0,0,0,0.3874532046611421,0,0,5.666471124806776
3,22,female,38,165,165,right,same,valid,clock,3,1.0573292595636303,1,j,1,same,1.2777580703514104,1,0,0,0,0.3874862404391024,0,0,5.897432574942286
3,22,female,39,45,95,right,change,valid,clock,3,0.8894667833301355,1,f,1,change,0.9140149308877881,1,0,0,0,0.38747148659786035,0,0,5.232194037396766
3,22,female,40,45,75,left,change,catch,clock,1,0.9054868896073458,0,f,1,change,0.8798511273216718,0,0,0,0,0.3875757256973884,0,0,6.439344390590122
3,22,female,41,105,125,right,same,catch,anti,1,1.7044504001496534,0,f,0,change,1.5586083534981299,0,0,0,0,0.3874204896219453,0,0,8.12356470778468
3,22,female,42,105,185,right,change,catch,anti,1,2.4079536678054865,0,f,1,change,1.5160512176407792,0,0,0,0,0.387457694963814,0,0,8.263869894208256
3,22,female,43,75,125,right,change,valid,clock,3,1.2644578027284297,1,f,1,change,1.381607475965211,1,0,0,0,0.38750131501547,0,0,5.921174392975445
3,22,female,44,165,215,left,change,valid,clock,2,1.4334377221093746,1,f,1,change,0.9431133556918212,1,0,0,0,0.3874692414483434,0,0,5.8642104513655795
3,22,female,45,105,55,right,change,valid,anti,3,1.1854933171507582,1,f,1,change,1.03872209920155,1,0,0,0,0.3874346019929362,0,0,5.03643846108389
3,22,female,46,105,105,left,same,catch,anti,1,1.2413969065692072,0,f,0,change,1.2272742726345314,0,0,0,0,0.387493938094849,0,0,7.5470435866973276
3,22,female,47,105,155,right,change,valid,clock,3,2.5763678094263014,1,f,1,change,1.1337063703231252,1,0,0,0,0.3874567327547993,0,0,6.757568720830022
3,22,female,48,15,15,left,same,valid,anti,3,1.3055039527462213,1,f,0,change,1.1049373410751286,1,0,0,0,0.3874862404391024,0,0,5.529396708994682
3,22,female,49,75,75,left,same,valid,clock,2,1.5773986539352336,1,f,0,change,1.1343058253296476,1,0,0,0,0.3875032394298614,0,0,6.141558621504373
3,22,female,50,45,135,right,same,catch,clock,1,0.8974598374770721,0,f,0,change,1.4157481865604495,0,0,0,0,0.3874766183671454,0,0,7.172504804620985
3,22,female,51,135,135,right,same,valid,anti,3,0.9442401001706457,1,j,1,same,1.0054836181043356,1,0,0,0,0.3875025979577913,0,0,5.3842349427432055
3,22,female,52,105,105,right,same,valid,clock,4,1.8414529711662908,1,j,1,same,1.2013928268115706,1,0,0,0,0.387493938096668,0,0,6.32895710865705
3,22,female,53,15,15,right,same,valid,anti,4,1.7214115449442033,1,f,0,change,1.2217496003631823,1,0,0,0,0.3875042016370571,0,0,6.0657767961838545
3,22,female,54,165,355,right,change,catch,anti,1,1.8893205278545793,0,f,1,change,3.5483794508490973,0,0,0,0,0.3875260116656136,0,0,10.182366464901861
3,22,female,55,165,165,left,same,valid,anti,1,0.9920351705914072,0,f,0,change,0.7451729278564017,1,0,0,0,0.38756000964713166,0,0,4.647856908262838
3,22,female,56,75,125,left,change,valid,clock,1,4.1454427307180595,0,f,1,change,0.629864277485467,1,0,0,0,0.38741824447242834,0,0,7.6133739726828935
3,22,female,57,15,15,right,same,valid,clock,3,0.9614735495688365,1,j,1,same,1.3266686595034116,1,0,0,0,0.38746090232052666,0,0,5.655656558788905
3,22,female,58,45,95,left,change,valid,clock,3,1.7615038270178047,1,f,1,change,1.0093844055754744,1,0,0,0,0.3874727695401816,0,0,6.127117176294632
3,22,female,1,15,15,left,same,valid,clock,3,1.5354717637128488,1,j,1,same,0.7969541014390416,1,0,0,0,0.3874025284239906,0,0,5.513552365875512
3,22,female,2,165,115,right,change,valid,anti,2,1.8574333062206279,1,f,1,change,0.8856208416618756,1,0,0,0,0.387457694961995,0,0,5.770992471690988
3,22,female,3,135,85,left,change,valid,anti,1,1.2654370087930147,0,f,1,change,0.6859641571445536,1,0,0,0,0.387450318041374,0,0,4.589980473610922
3,22,female,4,15,15,right,same,valid,clock,4,0.993448652781808,1,j,1,same,0.642619294432734,1,0,0,0,0.3875426899194281,0,0,4.482358254068458
3,22,female,5,45,75,left,change,catch,clock,3,5.2973793969649705,1,f,1,change,1.1709075408816716,0,0,0,0,0.3875157481234055,0,0,10.775773678633414
3,22,female,6,165,165,left,same,valid,clock,1,1.2164359721755318,0,f,0,change,0.7242455655086815,1,0,0,0,0.38748175014006847,0,0,5.031226506111125
3,22,female,7,45,355,left,change,valid,anti,2,1.9453937864527688,1,f,1,change,1.1689353371184552,1,0,0,0,0.3875070882586442,0,0,6.318347172009453
3,22,female,8,165,165,right,same,valid,clock,3,1.8333967320886586,1,j,1,same,1.552959235776143,1,0,0,0,0.38742658360024507,0,0,6.679318834369042
3,22,female,9,105,105,left,same,catch,anti,2,1.6814218982926832,1,f,0,change,0.9194594192376826,0,0,0,0,0.3875122200297483,0,0,7.514923190217814
3,22,female,10,45,45,right,same,valid,clock,4,1.3124360132296715,1,j,1,same,0.7823166867237887,1,0,0,0,0.3874224140363367,0,0,5.4563821912142885
3,22,female,11,165,165,left,same,valid,anti,2,1.4655029520508833,1,f,0,change,0.9792484008121392,1,0,0,0,0.38742882874976203,0,0,5.490614632219149
3,22,female,12,165,165,right,same,valid,anti,3,1.361524610691049,1,j,1,same,1.0201611247812252,1,0,0,0,0.3875414069789258,0,0,5.206188146121349
3,22,female,13,45,45,right,same,valid,anti,3,2.3934272276364936,1,f,0,change,0.48815715535602067,1,0,0,0,0.3875654621551803,0,0,6.362440952560064
3,22,female,14,105,125,right,same,catch,anti,3,2.4573578691852163,1,f,0,change,1.4580529034283245,0,0,0,0,0.3874272250723152,0,0,8.450796899896886
3,22,female,15,15,325,left,change,valid,anti,4,1.33633338807158,1,j,0,same,0.8725165435480449,1,0,0,0,0.38741920667962404,0,0,5.82757056826631
3,22,female,16,135,135,left,same,valid,clock,3,1.0894769185761106,1,j,1,same,1.383113330031847,1,0,0,0,0.38748175014006847,0,0,5.414638441070565
3,22,female,17,15,15,right,same,valid,anti,3,0.8894000703057827,1,j,1,same,1.28241194522343,1,0,0,0,0.3874041321014374,0,0,5.58504082323816
3,22,female,18,75,75,left,same,valid,clock,3,1.0253974556671892,1,j,1,same,1.2098531928604643,1,0,0,0,0.3874512802485697,0,0,5.478151484749105
3,22,female,19,45,45,left,same,valid,clock,3,1.3213864634144556,1,j,1,same,0.7880844766496011,1,0,0,0,0.38740477357350755,0,0,5.697976029498022
3,22,female,20,45,45,left,same,valid,anti,1,0.8813560191811121,0,j,1,same,1.4230933546132292,1,0,0,0,0.3874634682051692,0,0,5.274982423683468
3,22,female,21,135,135,right,same,valid,clock,3,0.9213642685044761,1,j,1,same,1.1318874782227795,1,0,0,0,0.38746603408981173,0,0,5.248938044127499
3,22,female,22,75,75,right,same,valid,clock,3,0.9851999722886831,1,j,1,same,0.8315281259547191,1,0,0,0,0.38746314746822463,0,0,5.166208442276911
3,22,female,23,105,185,right,change,catch,anti,2,0.9374398620584543,1,f,1,change,1.1157486997381056,0,0,0,0,0.387440695969417,0,0,6.470236690111051
3,22,female,24,15,65,right,change,valid,clock,2,0.8405998142297904,1,f,1,change,1.0791373621159437,1,0,0,0,0.3873884160529997,0,0,5.341993731541152
3,22,female,25,105,55,right,change,valid,anti,3,1.5693991850748716,1,f,1,change,1.4542063202898134,1,0,0,0,0.3874692414483434,0,0,6.333305322415981
3,22,female,26,45,95,left,change,valid,clock,3,2.4014815423033724,1,f,1,change,0.853773711989561,1,0,0,0,0.3874031698960607,0,0,6.486791142049697
3,22,female,27,105,55,left,change,valid,anti,2,2.409400506505335,1,f,1,change,1.4991275989214046,1,0,0,0,0.38748784411654924,0,0,7.187689073689398
3,22,female,28,135,185,left,change,valid,clock,3,4.1372909124038415,1,f,1,change,1.8194889910682832,1,0,0,0,0.38747437321944744,0,0,8.738716839136032
3,22,female,29,105,155,right,change,valid,clock,3,1.7694462049275899,1,f,1,change,1.0815553884876863,0.9996274776442496,0,0,0,0.38751254076487385,0,0,5.78547978210554
3,22,female,30,135,135,left,same,valid,anti,4,1.4574200919105351,1,j,1,same,0.799639942113572,0.9992654588706734,0,0,0,0.3874015662167949,0,0,5.692605631093102
3,22,female,31,75,25,left,change,valid,anti,1,1.2734493070838653,0,f,1,change,1.3946873981676617,0.998917327968309,0,0,0,0.38747052439066465,0,0,5.388602721377538
3,22,female,32,45,75,right,same,catch,anti,3,2.217382463199101,1,j,1,same,1.4656848091872234,0,0,0,0,0.3873977173880121,0,0,8.62241487033316
3,22,female,33,45,95,right,change,valid,clock,3,1.2642323255386145,1,f,1,change,0.9320454084754601,0.9999241355997388,0,0,0,0.38746763776725857,0,0,5.497661195342516
3,22,female,34,105,105,right,same,valid,anti,3,1.6734452016662544,1,j,1,same,1.2877040841194685,0.9995538502886516,0,0,0,0.38743235684160027,0,0,5.685173222931553
3,22,female,35,165,165,left,same,catch,clock,3,2.2973595113526244,1,f,0,change,2.0944913003659167,0,0,0,0,0.3874795049887325,0,0,9.043602092735455
3,22,female,36,165,215,left,change,valid,clock,2,2.816245391028133,1,j,0,same,1.6411987560586567,0.9991982796975907,0,0,0,0.38753146417002426,0,0,7.8041148464690195
3,22,female,37,15,325,right,change,valid,anti,2,3.481432610864431,1,f,1,change,1.2142331594513962,0.998856210958098,0,0,0,0.38750388090193155,0,0,7.619123801410751
3,22,female,38,135,135,right,same,valid,anti,3,1.1374230555065878,1,j,1,same,1.4325672454451706,0.9985265090583779,0,0,0,0.3875070882586442,0,0,5.931801970085871
3,22,female,39,105,105,right,same,valid,clock,4,1.0334261114785477,1,j,1,same,1.0827969563470106,0.9982081095370889,0,0,0,0.38760202602315985,0,0,5.6829303182476
3,22,female,40,15,125,left,same,catch,anti,1,1.9214762052597507,0,f,0,change,0.9497862617372448,0,0,0,0,0.38739515150336956,0,0,8.029983976044605
3,22,female,41,45,355,right,change,valid,anti,3,2.648104836951461,1,f,1,change,1.2857780662980076,0.9979000118092718,0,0,0,0.3874336397857405,0,0,7.256692470920825
3,22,female,42,165,355,right,change,catch,anti,2,1.7373572405431332,1,f,1,change,1.3769622609561338,0,0,0,0,0.3874779013112857,0,0,7.82785313641034
3,22,female,43,75,25,right,change,valid,anti,2,1.5923423712374642,1,f,1,change,1.907701890288081,0.9976012730579029,0,0,0,0.3875042016370571,0,0,6.592611468482573
3,22,female,44,75,125,left,change,valid,clock,2,1.7214602967706014,1,f,1,change,1.3754727644063678,0.9973110026314714,0,0,0,0.3873993210672779,0,0,6.239984386587821
3,22,female,45,75,75,left,same,valid,anti,2,1.1293886264575121,1,f,0,change,0.8536024391305546,0.997028356894089,0,0,0,0.38752408724940324,0,0,5.086755796977741
3,22,female,46,75,125,right,change,valid,clock,2,1.1613778420378367,1,f,1,change,1.3801680141841643,0.9967525344800319,0,0,0,0.387501315017289,0,0,5.687144143752448
3,22,female,47,105,155,left,change,valid,clock,2,1.3374559629883152,1,f,1,change,0.872019403226659,0.9964827719093861,0,0,0,0.38743716787757876,0,0,5.832390904963177
3,22,female,48,15,15,left,same,valid,anti,1,1.217433460173197,0,f,0,change,0.8638230026499514,0.9962183395256738,0,0,0,0.3874329983136704,0,0,4.972647339562172
3,22,female,49,15,65,left,change,valid,clock,1,1.3294504001496534,0,f,1,change,1.4841104331462702,0.9969981798654641,0,0,0,0.3875064467883931,0,0,5.658883159836478
3,22,female,50,135,185,right,change,valid,clock,3,0.7694285644647607,1,f,1,change,1.2923861837316508,0.997813677427319,0,0,0,0.38755808523274027,0,0,5.418242548026683
3,22,female,51,165,215,right,change,valid,clock,3,1.2574599914296414,1,f,1,change,0.8739736457901017,0.9975242621988627,0,0,0,0.3875346715285559,0,0,5.339768146583083
3,22,female,52,75,75,right,same,valid,anti,4,1.337498300101288,1,j,1,same,1.0865348100869596,0.997242887152807,0,0,0,0.3875253701935435,0,0,5.403396334375429
3,22,female,53,105,105,left,same,valid,anti,3,1.3132971885588631,1,j,1,same,1.9193346530537383,0.996968755233788,0,0,0,0.38747693910409,0,0,6.499864649536903
3,22,female,54,135,15,left,same,catch,anti,1,0.8974482909925428,0,f,0,change,2.1809247579731164,0,0,0,0,0.38757829158203094,0,0,7.702901888234919
3,22,female,55,105,105,left,same,valid,clock,2,2.8483138283263543,1,f,0,change,1.8447841320503358,0.996701108435873,0,0,0,0.38747533542482415,0,0,8.310328459006996
3,22,female,56,165,115,left,change,valid,anti,2,1.7934609690310026,1,f,1,change,1.251653713221458,0.9964392237816406,0,0,0,0.38744871436392714,0,0,5.721722979300466
3,22,female,57,135,85,right,change,valid,anti,3,1.529426858149236,1,f,1,change,1.4797176371284877,0.9961824095909149,0,0,0,0.3875042016370571,0,0,6.482880411773294
3,22,female,58,45,135,right,same,catch,clock,1,0.9295510470092267,0,f,0,change,1.0644242537764512,0,0,0,0,0.3874663548249373,0,0,6.8450756807942525
3,22,female,1,165,115,left,change,valid,anti,1,0.9923469256846147,0,f,1,change,1.0661013807039126,0.9959300020076103,0,0,0,0.38747341101043276,0,0,5.281367309078632
3,22,female,2,45,355,left,change,valid,anti,1,0.873452771027587,0,f,1,change,0.9724658031591389,0.99667633900028,0,0,0,0.38748078793287277,0,0,5.111217987370765
3,22,female,3,45,95,right,change,valid,clock,2,1.6094526581291575,1,f,1,change,1.4115917727449414,0.9974510540012915,0,0,0,0.38752280430708197,0,0,5.952744407009959
3,22,female,4,165,165,left,same,valid,anti,2,1.2254249106426869,1,f,0,change,1.218888317265737,0.9971781080994045,0,0,0,0.38746859997627325,0,0,5.719138811840821
3,22,female,5,105,125,right,same,catch,anti,1,1.7054629627255053,0,f,0,change,0.9480016883517237,0,0,0,0,0.38749457956691913,0,0,7.592685558425728
3,22,female,6,75,25,right,change,valid,anti,3,0.8721663001724664,1,f,1,change,0.8837814224752947,0.9969120520801498,0,0,0,0.38746090231870767,0,0,5.13060164883791
3,22,female,7,105,105,right,same,valid,anti,4,1.1134737214833876,1,j,1,same,1.3869374616733694,0.996652167859216,0,0,0,0.3875407655068557,0,0,5.284119862775697
3,22,female,8,135,85,left,change,valid,anti,2,1.497296839599585,1,f,1,change,0.8945491610847967,0.9963977698024271,0,0,0,0.3875061260514485,0,0,5.810872747471876
3,22,female,9,45,75,right,same,catch,anti,2,1.4494263962897094,1,f,0,change,1.0944120786498388,0,0,0,0,0.38756097185432736,0,0,6.673269438506395
3,22,female,10,135,185,right,change,valid,clock,2,1.1202120576090238,1,f,1,change,0.8947598844315507,0.996148201290949,0,0,0,0.3874281872795109,0,0,4.959894888499548
3,22,female,11,15,15,left,same,valid,clock,3,1.4814541001560428,1,j,1,same,1.1060576708423469,0.9959028315195833,0,0,0,0.3874512802485697,0,0,5.565693084168743
3,22,female,12,45,45,left,same,valid,anti,1,1.0494086916805827,0,f,0,change,1.7069258382107364,0.9956610525024788,0,0,0,0.38743748861270433,0,0,6.2982011218045955
3,22,female,13,105,155,left,change,valid,clock,1,1.3214137259474228,0,f,1,change,1.2469209373684862,0.9963777809464094,0,0,0,0.3874788635184814,0,0,5.891048331019192
3,22,female,14,135,135,left,same,valid,clock,2,4.1934340913812775,1,f,0,change,1.3038220147846005,0.9971164232838181,0,0,0,0.3875157481215865,0,0,9.048985320569045
3,22,female,15,165,215,right,change,valid,clock,3,0.8574785299533687,1,f,1,change,0.7271572041081527,0.9968580385124581,0,0,0,0.3874346019929362,0,0,4.463499316190791
3,22,female,16,165,215,left,change,valid,clock,2,1.6654043579001154,1,f,1,change,1.512950344982528,0.9966055347280038,0,0,0,0.3874349227280618,0,0,6.088714850575343
3,22,female,17,15,325,left,change,valid,anti,2,0.9614094024309452,1,f,1,change,2.6306205722448794,0.9963582607977433,0,0,0,0.38749073073813634,0,0,7.043563604454903
3,22,female,18,105,105,right,same,valid,clock,3,1.3374123429348401,1,j,1,same,0.8640715728106443,0.9961155925378375,0,0,0,0.3874291494848876,0,0,5.230542890059951
3,22,female,19,165,115,right,change,valid,anti,3,1.7373716736492497,1,f,1,change,0.8630484259574587,0.9958769297557775,0,0,0,0.38746859997627325,0,0,5.602990475432307
3,22,female,20,105,105,left,same,catch,anti,1,0.7854159557027742,0,f,0,change,1.0972826630822965,0,0,0,0,0.3874669962970074,0,0,6.220898688576199
3,22,female,21,15,65,right,change,valid,clock,1,0.8644176466204954,0,f,1,change,0.8305437881208491,0.9956416934808178,0,0,0,0.3875346715285559,0,0,5.239723949207473
3,22,female,22,15,15,left,same,valid,anti,2,1.0572878846578533,1,j,1,same,1.0257140217945562,0.9963391928401175,0,0,0,0.38746186452590337,0,0,4.892058648445527
3,22,female,23,45,75,left,change,catch,clock,1,3.329352255028425,0,f,1,change,3.333593022329296,0,0,0,0,0.38745801569893956,0,0,11.774205281104514
3,22,female,24,45,355,right,change,valid,anti,2,1.1283638759232417,1,f,1,change,0.7147081690109189,0.9960998529301321,0,0,0,0.387450318041374,0,0,4.796716115557501
3,22,female,25,135,135,left,same,valid,anti,2,1.1614920239444473,1,f,0,change,0.7963485524560383,0.9958644269227874,0,0,0,0.3874708451257902,0,0,5.063291094580563
3,22,female,26,75,75,left,same,valid,anti,2,1.3133703162966412,1,f,0,change,0.6768591123582155,0.9956323495696571,0,0,0,0.38743813008659345,0,0,5.047350210017612
3,22,female,27,75,75,right,same,valid,anti,3,1.3693928986540413,1,f,0,change,1.3117852405121084,0.9954030735942567,0,0,0,0.3874965039813105,0,0,5.711266995784172
3,22,female,28,45,95,left,change,valid,clock,2,1.425469043873818,1,f,1,change,0.7862556417403539,0.9951760673263506,0,0,0,0.38742658360024507,0,0,5.736935793847806
3,22,female,29,45,135,right,same,catch,clock,1,0.8415094206484355,0,f,0,change,0.5946276130343904,0,0,0,0,0.38738488796116144,0,0,6.048863441006688
3,22,female,30,15,15,right,same,valid,clock,3,0.8242544819604518,1,j,1,same,0.5708049696058879,0.9949508124600686,0,0,0,0.3875118992946227,0,0,4.819730505043481
3,22,female,31,105,155,right,change,valid,clock,2,1.2014040525591554,1,f,1,change,1.1946455100842286,0.9947113117963119,0,0,0,0.38745994011151197,0,0,5.197268807300134
3,22,female,32,105,55,right,change,valid,anti,3,0.9454678763959237,1,f,1,change,0.8862834815972747,0.9944725295197558,0,0,0,0.387520559157565,0,0,5.265839211349885
3,22,female,33,105,185,right,change,catch,anti,1,0.9054676454652508,0,f,1,change,0.7342441799301014,0,0,0,0,0.38751831400804804,0,0,5.939606110912791
3,22,female,34,165,165,left,same,valid,clock,3,1.7523827454460843,1,j,1,same,1.2868044205079059,0.9942338671754254,0,0,0,0.38746282673309906,0,0,6.2707888045279105
3,22,female,35,15,125,left,same,catch,anti,1,1.9934239561334834,0,f,0,change,1.490472546307501,0,0,0,0,0.38743524346318736,0,0,8.154443215669744
3,22,female,36,75,25,left,change,valid,anti,2,1.5843060177703592,1,f,1,change,0.8706626912553475,0.9939947321454081,0,0,0,0.3874471106846613,0,0,5.533938326376301
3,22,female,37,135,185,left,change,valid,clock,3,1.2894488862784783,1,j,0,same,1.0432540945112123,0.9937545351066079,0,0,0,0.38743524346318736,0,0,5.298057111480375
3,22,female,38,75,75,right,same,valid,clock,3,1.0734811882102804,1,j,1,same,0.8198122926442011,0.9935126875432247,0,0,0,0.3875054845793784,0,0,5.184233467358354
3,22,female,39,165,165,left,same,catch,clock,2,1.1374766183689644,1,f,0,change,0.8550492778304033,0,0,0,0,0.3874955417741148,0,0,6.563878361630486
3,22,female,40,75,125,right,change,valid,clock,3,1.2484784298831073,1,f,1,change,0.6497059495195572,0.9932685992971424,0,0,0,0.38750869193791004,0,0,5.291099392141405
3,22,female,41,75,125,left,change,valid,clock,3,2.0094636272897333,1,f,1,change,0.9234217879602511,0.9930216761400121,0,0,0,0.38750676752351865,0,0,5.992373546747331
3,22,female,42,45,45,right,same,valid,clock,3,1.081430622305561,1,j,1,same,0.876462875485231,0.9927713173512857,0,0,0,0.38749265515252773,0,0,5.1926842113371094
3,22,female,43,15,15,right,same,valid,anti,4,0.9934618029437843,1,j,1,same,0.9421739208537474,0.9925169132867683,0,0,0,0.3874779013112857,0,0,4.997657025780427
3,22,female,44,75,75,left,same,valid,clock,3,1.377393329725237,1,f,0,change,0.7881168709536723,0.9922578429224505,0,0,0,0.3875151066513354,0,0,5.076470124111438
3,22,female,45,45,45,left,same,valid,clock,3,1.689138157540583,1,j,1,same,1.1401861934828048,0.991993471358427,0,0,0,0.38749810765875736,0,0,5.613157476092965
3,22,female,46,135,85,right,change,valid,anti,3,1.521455614029037,1,f,1,change,0.8118073712757905,0.991723147267644,0,0,0,0.3874846367598366,0,0,5.668173269117688
3,22,female,47,165,355,right,change,catch,anti,1,1.1214465692828526,0,j,0,same,1.7904470157463948,0,0,0,0,0.38740092474472476,0,0,7.484239368894123
3,22,female,48,105,55,left,change,valid,anti,2,2.248433526885492,1,f,1,change,1.2191157188717625,0.9914462002740128,0,0,0,0.38754301065637264,0,0,6.370232905428566
3,22,female,49,45,45,right,same,valid,anti,3,0.8014463255240116,1,j,1,same,0.6288356781242328,0.9911619382441086,0,0,0,0.3874253006579238,0,0,4.068248064681029
3,22,female,50,135,135,right,same,valid,clock,4,1.2493007961948024,1,j,1,same,1.1211402666976937,0.9908696444762254,0,0,0,0.38748207087519404,0,0,5.379282783678718
3,22,female,51,165,165,right,same,valid,anti,4,1.129363609072243,1,j,1,same,0.7193049529287237,0.9905685747699815,0,0,0,0.38745641201967373,0,0,5.235316399344811
3,22,female,52,135,135,right,same,valid,anti,4,1.001208532083183,1,j,1,same,0.6927429059669521,0.9902579543589657,0,0,0,0.38746571335468616,0,0,4.752788476094793
3,22,female,53,135,15,left,same,catch,anti,1,1.1053671269019105,0,f,0,change,1.1102564217690087,0,0,0,0,0.38742786654256633,0,0,6.969999666434887
3,22,female,54,15,65,left,change,valid,clock,2,1.3042803460866708,1,f,1,change,1.042421464659128,0.9899364310829639,0,0,0,0.3874968247182551,0,0,4.970582443183957
3,22,female,55,165,165,right,same,valid,clock,3,1.0014336885378725,1,j,1,same,0.7431478027046978,0.9896161700832717,0,0,0,0.3874368471424532,0,0,5.240401984456184
3,22,female,56,105,105,left,same,valid,clock,4,1.5054598836613877,1,j,1,same,1.0852759224999318,0.9893084523977329,0,0,0,0.3874711658627348,0,0,5.8215404165457585
3,22,female,57,15,325,right,change,valid,anti,2,0.7694506952266238,1,f,1,change,0.815482040085044,0.9890123691975393,0,0,0,0.3874567327547993,0,0,4.921294027388285
3,22,female,58,105,105,left,same,valid,anti,2,1.2335363162619615,1,j,1,same,1.070754614103862,0.988727066301319,0,0,0,0.3874708451257902,0,0,5.46226352157646
3,22,female,1,105,105,left,same,valid,clock,1,1.296380626023165,0,f,0,change,0.7867813275370281,0.9884517395783399,0,0,0,0.38745833643406513,0,0,4.953463817166266
3,22,female,2,135,135,right,same,valid,clock,2,1.161469251710514,1,j,1,same,1.21108930821174,0.9892505116367275,0,0,0,0.3874387715568446,0,0,5.519744168383113
3,22,female,3,165,355,right,change,catch,anti,1,0.7774777473568975,0,f,1,change,0.7224658031609579,0,0,0,0,0.38739258561690804,0,0,6.361378996687563
3,22,female,4,165,215,right,change,valid,clock,4,0.5762446469216229,1,f,1,change,1.0044399441667338,0.9889588841066512,0,0,0,0.38746282673309906,0,0,4.615043401954608
3,22,female,5,165,165,left,same,catch,clock,1,1.1774576051575423,0,f,0,change,0.8213915951855597,0,0,0,0,0.3874987491308275,0,0,6.751139573909313
3,22,female,6,165,165,left,same,valid,clock,3,1.2083373959849268,1,j,1,same,0.7034971736775333,0.9886777933548092,0,0,0,0.38744743142160587,0,0,4.92764844289195
3,22,female,7,135,135,left,same,valid,clock,3,1.2574259934481233,1,f,0,change,0.9157895614644076,0.9884064562466017,0,0,0,0.3875099748802313,0,0,5.18032081266756
3,22,female,8,15,65,right,change,valid,clock,3,0.745464797333625,1,f,1,change,0.7630558670261962,0.988144133887529,0,0,0,0.3874929758894723,0,0,4.400093077496422
3,22,female,9,105,105,right,same,valid,clock,4,0.8254562785950839,1,j,1,same,0.514754162508325,0.9878901278775192,0,0,0,0.3874426203838084,0,0,4.183961483493476
3,22,female,10,75,75,right,same,valid,anti,4,0.43352303780375223,1,j,1,same,1.015873850805292,0.9876437768527313,0,0,0,0.38745833643406513,0,0,4.425713765205728
3,22,female,11,75,125,right,change,valid,clock,3,0.8253145134185615,1,f,1,change,1.8603776598611148,0.9874044532876887,0,0,0,0.38746763776907756,0,0,5.665928119282398
3,22,female,12,45,95,right,change,valid,clock,3,0.5774929502294981,1,j,0,same,0.9130661947147019,0.9871715605330995,0,0,0,0.38747244880505605,0,0,4.609678135320792
3,22,female,13,45,135,right,same,catch,clock,1,1.0574238765912014,0,j,1,same,0.7893776829550916,0,0,0,0,0.38745994011151197,0,0,6.5171721888800676
3,22,female,14,15,125,left,same,catch,anti,1,0.9764900738719007,0,j,1,same,0.6664762565796991,0,0,0,0,0.3874451862702699,0,0,6.423934644330075
3,22,female,15,75,25,left,change,valid,anti,2,1.4561239989834576,1,f,1,change,1.0986252626826172,0.986944530066958,0,0,0,0.38751061635230144,0,0,6.00763383017329
3,22,female,16,15,325,left,change,valid,anti,1,0.8494364032430894,0,j,0,same,0.7843706780859065,0.986722818938526,0,0,0,0.38750388090193155,0,0,5.064105763236512
3,22,female,17,105,155,left,change,valid,clock,1,0.8974572715906106,0,f,1,change,0.9476094286037551,0.9873739167165809,0,0,0,0.3874949003020447,0,0,4.800685540465565
3,22,female,18,15,325,right,change,valid,anti,3,0.7854108239316702,1,j,0,same,1.5304166484911548,0.9880637647283637,0,0,0,0.3874785427833558,0,0,5.322087270898919
3,22,female,19,75,75,left,same,valid,clock,4,0.6719021422577498,1,j,1,same,0.9989774946170655,0.9878167100487378,0,0,0,0.3874166407931625,0,0,4.937410354374151
3,22,female,20,105,105,left,same,valid,anti,3,0.9294237149406399,1,j,1,same,0.9412069027457619,0.9875769897527431,0,0,0,0.3874471106846613,0,0,5.118572136021612
3,22,female,21,45,45,left,same,valid,clock,4,1.505478165596287,1,j,1,same,0.6770826651336392,0.9873440057206886,0,0,0,0.3874204896219453,0,0,5.168675220473233
3,22,female,22,45,355,left,change,valid,anti,3,1.2734733622583008,1,f,1,change,2.004226654931699,0.9871171887330465,0,0,0,0.3874156785859668,0,0,6.1711176227581745
3,22,female,23,45,75,right,same,catch,anti,3,1.313415540029382,1,f,0,change,0.9777066243459558,0,0,0,0,0.3874070187248435,0,0,7.109994380711214
3,22,female,24,105,155,right,change,valid,clock,3,1.2004944461405103,1,f,1,change,0.6759084517707379,0.9868959959149998,0,0,0,0.38756866951007396,0,0,5.197569657377244
3,22,female,25,135,135,left,same,valid,anti,2,1.201458256889964,1,j,1,same,0.8937707355617022,0.9866799083576506,0,0,0,0.38745641201967373,0,0,5.129483564220209
3,22,female,26,45,355,right,change,valid,anti,3,1.3850637237665069,1,f,1,change,1.881217782100066,0.9864684288989944,0,0,0,0.38749457956691913,0,0,6.259657030910603
3,22,female,27,135,85,left,change,valid,anti,3,1.3454701856935571,1,f,1,change,0.6783303269712633,0.9862610800492032,0,0,0,0.3874349227280618,0,0,5.259012672908284
3,22,female,28,165,215,left,change,valid,clock,3,2.265377031219032,1,f,1,change,0.8498318703514087,0.9860574020460529,0,0,0,0.38742947022183216,0,0,6.184438417463753
3,22,female,29,165,115,right,change,valid,anti,3,1.225389308981903,1,f,1,change,1.5274658801372425,0.9858569510274879,0,0,0,0.38753531299880706,0,0,5.908892140436365
3,22,female,30,75,75,right,same,valid,clock,4,1.3773391253926093,1,j,1,same,0.7201837687207444,0.9856592973093505,0,0,0,0.3874730902753072,0,0,5.683490964232988
3,22,female,31,105,185,right,change,catch,anti,1,1.0094309122487175,0,f,1,change,0.6987858871161734,0,0,0,0,0.38754108624198125,0,0,6.25182658975973
3,22,female,32,135,85,right,change,valid,anti,3,1.3681712164088822,1,f,1,change,0.8186335889822658,0.9854640237572271,0,0,0,0.3874669962988264,0,0,5.410957036812761
3,22,female,33,135,15,left,same,catch,anti,1,0.9694255495487596,0,f,0,change,1.6846446505132917,0,0,0,0,0.3875346715285559,0,0,7.062447559714201
3,22,female,34,135,185,right,change,valid,clock,3,1.0718178529186844,1,f,1,change,0.7796831259674946,0.985270724242193,0,0,0,0.38746282673309906,0,0,5.495076707147746
3,22,female,35,75,75,left,same,valid,anti,1,1.0333735108233668,0,f,0,change,1.1486792745727143,0.9850790021709703,0,0,0,0.38746218526102894,0,0,5.290540670568589
3,22,female,36,165,165,right,same,valid,clock,3,1.593497019724964,1,j,1,same,1.066415380944818,0.9856509204020816,0,0,0,0.38741728226523264,0,0,6.145951417523975
3,22,female,37,105,55,right,change,valid,anti,2,2.697454192528312,1,f,1,change,0.9333540100942628,0.9854579640478272,0,0,0,0.3874759768968943,0,0,6.934540411413764
3,22,female,38,45,95,left,change,valid,clock,3,3.081319006283593,1,f,1,change,1.8323710193490115,0.985266944198732,0,0,0,0.3875016357524146,0,0,8.158184918238476
3,22,female,39,45,45,left,same,valid,anti,3,1.2254540975900454,1,j,1,same,0.9581202579229284,0.9850774719611275,0,0,0,0.3874958625092404,0,0,5.638788427342661
3,22,female,40,165,165,left,same,valid,anti,3,1.4573562655077694,1,f,0,change,2.649972480878205,0.9848891663343861,0,0,0,0.38745737422686943,0,0,7.126105896661102
3,22,female,41,45,45,right,same,valid,clock,4,1.0094863995254855,1,j,1,same,0.6798387469243607,0.9846886668629129,0,0,0,0.38756385847591446,0,0,4.698395551780777
3,22,female,42,165,165,right,same,valid,anti,4,2.0894570329637645,1,j,1,same,0.1502050142535154,0.9844885504617057,0,0,0,0.38750965414510574,0,0,5.322528603208411
3,22,female,43,105,125,right,same,catch,anti,1,1.0334748633031268,0,f,0,change,1.0591744519915665,0,0,0,0,0.3875260116656136,0,0,6.766914958856432
3,22,female,44,135,135,right,same,valid,anti,4,1.4397488382965093,1,j,1,same,1.0481177305264282,0.9842883716137689,0,0,0,0.38752184209988627,0,0,5.165742413317275
3,22,female,45,15,65,left,change,valid,clock,2,1.9614187037659576,1,f,1,change,1.2254249106426869,0.9840876879062217,0,0,0,0.3874297909587767,0,0,6.648691783264439
3,22,female,46,135,185,left,change,valid,clock,2,1.113517020801737,1,f,1,change,1.0108036610054114,0.9838860584263734,0,0,0,0.3874766183671454,0,0,5.40130193031473
3,22,female,47,45,45,right,same,valid,anti,4,1.0254195864290523,1,j,1,same,1.235315437137615,0.9836830421841296,0,0,0,0.3874910514750809,0,0,5.6982739929535455
3,22,female,48,165,115,left,change,valid,anti,3,1.4174121633241157,1,f,1,change,1.292513195066931,0.9834781965516305,0,0,0,0.38749137221020646,0,0,6.348106633069619
3,22,female,49,15,15,left,same,valid,anti,4,1.5854869665854494,1,j,1,same,0.8329505887413688,0.9832710757112809,0,0,0,0.3874968247164361,0,0,5.661563548004779
3,22,female,50,45,75,left,change,catch,clock,1,0.833159066940425,0,f,1,change,0.7585857737030892,0,0,0,0,0.38749457956691913,0,0,5.95557618242492
3,22,female,51,15,15,left,same,valid,clock,3,0.9281706005967862,1,j,1,same,1.3995632221358392,0.9830612291035201,0,0,0,0.38742947022183216,0,0,5.572823680044166
3,22,female,52,105,105,right,same,valid,anti,4,0.9214858273298887,1,j,1,same,1.3656117455975618,0.9828481998658027,0,0,0,0.38751991768731386,0,0,5.658259008181631
3,22,female,53,15,15,right,same,valid,anti,4,0.5534371319572529,1,j,1,same,1.0465672941973025,0.9826315232543199,0,0,0,0.38745833643406513,0,0,4.826014037958885
3,22,female,54,15,15,right,same,valid,clock,4,0.665329947220016,1,j,1,same,1.658076830310165,0.9824107250399905,0,0,0,0.38745224245576537,0,0,5.668141837018993
3,22,female,55,75,25,right,change,valid,anti,4,0.5374074036044476,1,j,0,same,1.5290599365198432,0.9821853198701824,0,0,0,0.38742273477328126,0,0,5.092291694998494
3,22,female,56,105,105,left,same,catch,anti,1,0.921402756786847,0,f,0,change,0.9623918158522429,0,0,0,0,0.38738873678812524,0,0,6.454649577013697
3,22,female,57,105,55,left,change,valid,anti,2,1.3124709734202042,1,f,1,change,1.455074231067556,0.9819548095875033,0,0,0,0.3874262628651195,0,0,6.113811135430296
3,22,female,58,75,125,left,change,valid,clock,2,1.4893894218803325,1,f,1,change,1.4337552504421183,0.9817186814968144,0,0,0,0.38758085746849247,0,0,6.381556478989296
