subject,age,gender,ntrial,memory_ori,test_ori,cue,type,trial_type,which_change,pas,pas_rt,vis,test_key,test_acc,test,test_rt,contrast,fix_dur,cue_dur,jitter_dur,target_dur,mask_dur,retention_dur,trial_dur
4,22,female,1,165,115,left,change,valid,anti,1,1.2003494736086395,0,f,0,same,0.7188854306455141,0.5,0,0,0,0.3874743732180832,0,0,4.761224466231397
4,22,female,2,15,15,right,same,valid,anti,1,1.3534058281525176,0,j,0,change,2.504383494685044,0.6571452603159259,0,0,0,0.3874907307385911,0,0,7.018992043188973
4,22,female,3,105,105,right,same,valid,clock,1,1.1613627674619238,0,f,1,same,2.4146602510977573,0.7719982136857017,0,0,0,0.3874798257252223,0,0,6.605682410085137
4,22,female,4,75,75,left,same,valid,clock,2,1.0334835231669786,1,f,1,same,2.0966501722996327,0.8640190595137247,0,0,0,0.38742786654347583,0,0,6.189703293826824
4,22,female,5,45,355,right,same,catch,anti,1,1.297448996610001,0,f,1,same,3.066834903227573,0,0,0,0,0.3874955417741148,0,0,9.35660837402429
4,22,female,6,45,355,left,change,valid,anti,1,1.128295559221442,0,f,0,same,2.8854511724812255,0.8299860920283681,0,0,0,0.3875032394307709,0,0,6.8821296336691375
4,22,female,7,75,75,right,same,valid,anti,1,0.8492455655086815,0,j,0,change,7.627597638359475,0.8905700901297022,0,0,0,0.3875234457791521,0,0,11.609175542492267
4,22,female,8,165,165,left,same,valid,clock,1,1.1373217030295564,0,f,1,same,4.422283176258134,0.9453062267214238,0,0,0,0.38742016888681974,0,0,8.377612071464682
4,22,female,9,45,95,right,change,valid,clock,1,1.0973609225893597,0,j,1,change,2.711229148972052,0.9981640293695744,0,0,0,0.38749137221020646,0,0,7.175235548291312
4,22,female,10,135,135,left,same,valid,anti,2,3.4974459816949093,1,j,0,change,3.0332160296002257,1,0,0,0,0.3875167103296917,0,0,9.733286783893163
4,22,female,11,135,185,left,change,valid,clock,1,1.2173465408013726,0,f,0,same,3.927965329754443,1,0,0,0,0.38743620567129256,0,0,8.453558754929873
4,22,female,12,165,115,right,change,valid,anti,1,1.0253730797548997,0,j,1,change,4.38036911546169,1,0,0,0,0.38754493506985455,0,0,8.90193474183343
4,22,female,13,45,45,left,same,valid,anti,2,2.7374306890169464,1,j,0,change,2.473487025599752,1,0,0,0,0.38753819962039415,0,0,8.624921419755992
4,22,female,14,165,215,right,change,valid,clock,1,1.0973063975216064,0,f,0,same,5.118761049345267,1,0,0,0,0.38746859997627325,0,0,9.172031719476763
4,22,female,15,135,135,right,same,valid,clock,1,1.0014365751594596,0,f,1,same,2.896742672472101,1,0,0,0,0.38753531299971655,0,0,7.549857721647641
4,22,female,16,75,125,left,same,catch,clock,1,0.9292524420816335,0,j,0,change,3.9862904736364726,0,0,0,0,0.3874567327547993,0,0,9.402572685122323
4,22,female,17,105,105,left,same,valid,anti,1,0.768044589958663,0,f,1,same,3.83760702949985,1,0,0,0,0.38747725983921555,0,0,8.14291501273965
4,22,female,18,15,115,right,change,catch,clock,2,1.6092993464690153,1,j,1,change,4.519455506262602,0,0,0,0,0.3874615437907778,0,0,10.541286381048849
4,22,female,19,15,15,right,same,valid,clock,1,1.3601047137881324,0,j,0,change,3.5435244746995522,1,0,0,0,0.38747629763201985,0,0,8.346782636139324
4,22,female,20,105,105,right,same,valid,anti,1,0.9293922828428549,0,f,1,same,2.9066928558049767,1,0,0,0,0.38750965414419625,0,0,7.2879000536267995
4,22,female,21,165,215,left,change,valid,clock,1,0.8254408832808622,0,f,0,same,2.104699034456644,1,0,0,0,0.3874147163796806,0,0,5.641733422455218
4,22,female,22,45,55,left,same,catch,anti,1,0.6573426663144346,0,f,1,same,3.203615845883178,0,0,0,0,0.3874660340907212,0,0,8.263708564156332
4,22,female,23,165,165,left,same,valid,anti,2,0.944059846714481,1,j,0,change,1.617747524562219,1,0,0,0,0.3874644304114554,0,0,6.035455726928376
4,22,female,24,135,85,right,change,valid,anti,1,0.7214391282150245,0,f,0,same,1.7116464261061992,1,0,0,0,0.3874083016653458,0,0,5.6924985053719865
4,22,female,25,75,75,left,same,valid,anti,1,1.1133556907489037,0,j,0,change,4.160194968811993,1,0,0,0,0.3874900892669757,0,0,8.164724077500068
4,22,female,26,165,165,right,same,valid,clock,1,0.5934578899696135,0,j,0,change,1.464423676451588,1,0,0,0,0.3875051638442528,0,0,5.549652450805297
4,22,female,27,45,45,right,same,valid,anti,1,2.4332760713214157,0,j,0,change,5.220927234051487,1,0,0,0,0.38742626286421,0,0,10.826350810434633
4,22,female,28,15,325,left,change,valid,anti,1,0.6254054099135828,0,j,1,change,1.6442422170275677,1,0,0,0,0.3874471106846613,0,0,5.318596383641307
4,22,female,29,45,105,right,same,catch,clock,1,3.489352537276318,0,f,1,same,2.668962920388367,0,0,0,0,0.38747693910409,0,0,10.588076586551324
4,22,female,30,135,85,left,change,valid,anti,1,0.7443284307810245,0,j,1,change,2.69723256416637,1,0,0,0,0.3875359544708772,0,0,6.628241034154598
4,22,female,31,75,25,right,change,valid,anti,1,0.6734002986695486,0,f,0,same,2.829165266120981,1,0,0,0,0.3874872026462981,0,0,6.412777211857247
4,22,female,32,45,95,left,change,valid,clock,1,0.4014132256006633,0,j,1,change,1.8211378932537627,1,0,0,0,0.38746026084754703,0,0,5.255700114695173
4,22,female,33,135,185,right,change,valid,clock,1,1.3373392151979715,0,f,0,same,4.290301081007783,1,0,0,0,0.38754589727705024,0,0,8.33340956151551
4,22,female,34,15,65,right,change,valid,clock,2,1.8812575533256677,1,j,1,change,3.323929576705268,1,0,0,0,0.38747725984012504,0,0,8.641869735123691
4,22,female,35,105,155,left,change,valid,clock,2,1.585421857239453,1,f,0,same,2.3878319935129184,1,0,0,0,0.3875465387491204,0,0,7.006480785366875
4,22,female,36,45,45,left,same,valid,clock,2,1.961456550577168,1,f,1,same,1.8762418885944498,1,0,0,0,0.3873919441457474,0,0,6.952822666519751
4,22,female,37,75,75,right,same,valid,clock,3,3.257393599142233,1,f,1,same,1.6458558382882984,1,0,0,0,0.3875083712009655,0,0,7.85673346094336
4,22,female,38,45,125,left,change,catch,clock,2,2.06536336787849,1,j,1,change,1.4696211983200556,0,0,0,0,0.38746956218255946,0,0,8.41951843460447
4,22,female,39,135,135,left,same,valid,clock,2,1.2640998616989236,1,f,1,same,1.0985069112130077,1,0,0,0,0.3874900892669757,0,0,5.687788822488983
4,22,female,40,75,25,left,change,valid,anti,1,0.8174388485331292,0,j,1,change,1.3123792430124013,1,0,0,0,0.3874737317464678,0,0,5.568425110781391
4,22,female,41,105,55,left,change,valid,anti,2,1.873455657649174,1,j,1,change,1.159652925494811,1,0,0,0,0.3874176030012677,0,0,6.157477375304552
4,22,female,42,105,85,right,same,catch,anti,1,0.7774229015540186,0,j,0,change,1.1714406035989668,0,0,0,0,0.3875151066513354,0,0,6.7354851063173555
4,22,female,43,135,135,left,same,catch,anti,1,0.8962487395083372,0,j,0,change,1.2864705346537448,0,0,0,0,0.38742947022183216,0,0,7.172609043720513
4,22,female,44,45,355,right,change,valid,anti,1,0.7123212539991073,0,j,1,change,1.3488337408816733,1,0,0,0,0.38754301065637264,0,0,5.779952864682855
4,22,female,45,135,135,right,same,valid,anti,2,1.0015183627592705,1,f,1,same,1.0029103556580594,1,0,0,0,0.38741728226523264,0,0,5.005591385295702
4,22,female,46,45,45,right,same,valid,clock,2,3.801446646259137,1,j,0,change,2.3953776213729725,1,0,0,0,0.3874939380957585,0,0,9.670175301299423
4,22,female,47,15,325,right,change,valid,anti,1,1.5694703883982584,0,f,0,same,0.9468932258059795,1,0,0,0,0.38744967657021334,0,0,5.332903761331181
4,22,female,48,15,65,left,change,valid,clock,2,1.4093690744084597,1,j,1,change,1.3153043525107933,1,0,0,0,0.3874756561608592,0,0,5.420152208329455
4,22,female,49,165,165,right,same,valid,anti,2,2.5133252850055214,1,j,0,change,1.6826378072973966,1,0,0,0,0.3874788635175719,0,0,7.389969696891967
4,22,female,50,105,155,right,change,valid,clock,3,3.9208985602808752,1,j,1,change,4.163104041526822,1,0,0,0,0.3874054150446682,0,0,10.793779459572761
4,22,female,51,15,15,left,same,valid,clock,2,1.6414280820772547,1,f,1,same,1.779598131009152,1,0,0,0,0.3874326775785448,0,0,6.605291754013706
4,22,female,52,165,135,right,change,catch,anti,2,2.5532838202952917,1,f,0,same,2.3463137205599196,0,0,0,0,0.3874939380957585,0,0,9.808193642249535
4,22,female,53,105,105,left,same,valid,clock,3,1.9601851542993245,1,f,1,same,1.2112432613430428,1,0,0,0,0.3874682792402382,0,0,6.535667091749019
4,22,female,54,15,15,left,same,valid,anti,3,5.481390594489312,1,f,1,same,1.330843034519603,1,0,0,0,0.3874855989670323,0,0,9.989597900079389
4,22,female,55,105,55,right,change,valid,anti,2,1.457448316650698,1,j,1,change,1.010644255367879,1,0,0,0,0.3875356337348421,0,0,5.9405789022630415
4,22,female,56,75,125,right,change,valid,clock,2,1.4174538589631993,1,j,1,change,1.9435255010530454,1,0,0,0,0.38746956218255946,0,0,6.875927567617509
4,22,female,57,45,125,left,same,catch,clock,2,2.081397265792475,1,j,0,change,1.3065530791909623,0,0,0,0,0.3874169615291976,0,0,8.279437121692354
4,22,female,58,75,125,left,change,valid,clock,3,1.9275323365727672,1,j,1,change,1.0141729894367018,1,0,0,0,0.38743331904970546,0,0,6.405354425767655
4,22,female,1,15,325,right,change,valid,anti,1,0.8321772949921069,0,j,1,change,3.283564027824468,1,0,0,0,0.3874740524825029,0,0,7.081417151405731
4,22,female,2,135,185,right,change,valid,clock,3,1.481435818222053,1,j,1,change,1.3624027850119091,1,0,0,0,0.38745994011242146,0,0,6.012749564441037
4,22,female,3,75,75,left,same,valid,clock,3,1.0174120991769087,1,f,1,same,1.1639312188726763,1,0,0,0,0.38745544981247804,0,0,5.348381182821868
4,22,female,4,165,215,left,change,valid,clock,2,1.081418434348052,1,j,1,change,1.3415572102667284,1,0,0,0,0.3875090126730356,0,0,5.75650484054313
4,22,female,5,105,55,left,change,valid,anti,3,1.7534052508281093,1,j,1,change,1.8192423453219817,1,0,0,0,0.3874977869245413,0,0,7.039529070199933
4,22,female,6,15,15,right,same,valid,clock,3,3.2974037728781695,1,f,1,same,1.431577775839287,1,0,0,0,0.3873996418024035,0,0,7.6749779975316414
4,22,female,7,165,135,right,change,catch,anti,1,0.7293933733444646,0,j,1,change,1.708961547639774,0,0,0,0,0.3874387715568446,0,0,7.156692214333816
4,22,female,8,15,15,left,same,valid,clock,3,1.3923646302946509,1,f,1,same,3.000180253457984,1,0,0,0,0.38753916182758985,0,0,7.891937089618295
4,22,female,9,165,165,right,same,valid,clock,3,1.56121721760519,1,f,1,same,3.013301550565302,1,0,0,0,0.38749457956691913,0,0,8.181059466963234
4,22,female,10,45,355,left,change,valid,anti,3,1.1933991311916543,1,f,0,same,2.919526132261126,1,0,0,0,0.38743139463531406,0,0,7.574104698393057
4,22,female,11,45,95,right,change,valid,clock,2,1.4494209437843892,1,j,1,change,2.455094758151972,1,0,0,0,0.38747052438975516,0,0,6.934211657330707
4,22,female,12,165,165,right,same,valid,anti,3,1.8893394512597297,1,f,1,same,1.9321884565943037,1,0,0,0,0.38743524346409686,0,0,6.871176509831457
4,22,female,13,105,105,right,same,valid,anti,4,3.7375015716052076,1,f,1,same,1.0468954068082894,1,0,0,0,0.38746218526193843,0,0,7.59810791601376
4,22,female,14,165,165,left,same,valid,clock,3,6.385343084553824,1,f,1,same,3.032354854271034,1,0,0,0,0.3874150371157157,0,0,12.607559355346893
4,22,female,15,75,75,right,same,valid,clock,3,3.3214862122140403,1,f,1,same,1.1002568451413026,1,0,0,0,0.3874730902753072,0,0,7.489725873620046
4,22,female,16,75,125,left,same,catch,clock,1,1.1610731431328531,0,f,1,same,1.9843256467956962,0,0,0,0,0.3874968247164361,0,0,8.233167790952393
4,22,female,17,165,215,right,change,valid,clock,3,1.8481422347322223,1,j,1,change,1.4484856785093143,1,0,0,0,0.3874461484774656,0,0,6.410033318023125
4,22,female,18,75,125,right,change,valid,clock,2,2.945275114246215,1,f,0,same,5.576817160128485,1,0,0,0,0.3875006735452189,0,0,11.613242471050398
4,22,female,19,45,45,left,same,valid,clock,4,1.9294179416974657,1,f,1,same,1.3205236844069077,1,0,0,0,0.38749329662368837,0,0,6.453223265397355
4,22,female,20,15,15,right,same,valid,anti,4,2.3213989721061807,1,f,1,same,0.9889907474171196,1,0,0,0,0.3875317849069688,0,0,6.5934530789345445
4,22,female,21,135,135,left,same,catch,anti,1,0.4894173258862793,0,f,1,same,2.3008933771925513,0,0,0,0,0.38750676752260915,0,0,7.48348371560769
4,22,female,22,105,55,right,change,valid,anti,1,1.4324578745745384,0,f,0,same,0.5200084545931531,1,0,0,0,0.3875093334081612,0,0,5.287732629596576
4,22,female,23,15,15,left,same,valid,anti,3,1.27347881476544,1,f,1,same,1.3620932750700376,1,0,0,0,0.3874965039813105,0,0,5.510002783985328
4,22,female,24,45,55,left,same,catch,anti,1,0.7533083886492022,0,j,0,change,2.2314845700475416,0,0,0,0,0.3874538461341217,0,0,7.9831883180368095
4,22,female,25,135,135,right,same,valid,anti,1,0.9041859856470182,0,j,0,change,7.107671292103078,1,0,0,0,0.3875330678501996,0,0,11.340982131173405
4,22,female,26,135,185,left,change,valid,clock,2,1.8012901272422823,1,j,1,change,3.612865927349958,1,0,0,0,0.38748495749678113,0,0,8.86261703645323
4,22,female,27,45,355,right,change,valid,anti,2,1.0174823402930997,1,j,1,change,1.0953563245229816,1,0,0,0,0.38752023842243943,0,0,5.303531748983914
4,22,female,28,75,125,left,change,valid,clock,2,1.0253461379579676,1,j,1,change,1.0727848710257604,1,0,0,0,0.3874987491308275,0,0,5.742519160749907
4,22,female,29,45,45,right,same,valid,anti,3,2.4252486984541974,1,f,1,same,3.6399575089353675,1,0,0,0,0.3875022772235752,0,0,9.617862668674206
4,22,female,30,15,115,right,change,catch,clock,1,0.5134946334501365,0,f,0,same,0.6271495705987036,0,0,0,0,0.3874384508208095,0,0,5.643458980471223
4,22,female,31,165,115,left,change,valid,anti,2,3.0480494138228096,1,f,0,same,4.895361263852465,1,0,0,0,0.38747725983921555,0,0,11.1334186704089
4,22,female,32,45,45,right,same,valid,clock,1,1.121385308765639,0,f,1,same,2.9928754981019665,1,0,0,0,0.3874641096763298,0,0,7.1696669352286335
4,22,female,33,15,65,left,change,valid,clock,1,1.2494377503344367,0,j,1,change,1.2399667461240824,1,0,0,0,0.38737815251170105,0,0,5.68011393814686
4,22,female,34,45,95,left,change,valid,clock,3,2.0815005426848074,1,j,1,change,1.0893643403496753,1,0,0,0,0.38746090231961716,0,0,6.536355069804813
4,22,female,35,165,165,left,same,valid,anti,1,1.1453436233896355,0,f,1,same,3.39484167203409,1,0,0,0,0.3873727000045619,0,0,7.485975190453246
4,22,female,36,105,85,right,same,catch,anti,1,0.6493858552994425,0,f,1,same,0.5147907263763045,0,0,0,0,0.38749650398040103,0,0,6.111438332790385
4,22,female,37,105,155,right,change,valid,clock,3,1.9436977361192476,1,j,1,change,0.9795617595809745,1,0,0,0,0.3874214518300505,0,0,6.225211942143687
4,22,female,38,75,75,right,same,valid,anti,2,1.7293975429074635,1,j,0,change,3.250648848302262,1,0,0,0,0.38745994011242146,0,0,7.831435112604595
4,22,female,39,135,135,left,same,valid,clock,1,0.9214861480668333,0,f,1,same,0.6013232913128377,1,0,0,0,0.3874586571691907,0,0,4.750773293750171
4,22,female,40,15,65,right,change,valid,clock,2,0.9533688794008413,1,f,0,same,1.5206361343398385,1,0,0,0,0.3874063772527734,0,0,5.295284672170055
4,22,female,41,105,105,left,same,valid,clock,2,1.0093914617591508,1,f,1,same,1.2875100390274383,1,0,0,0,0.3874852782319067,0,0,5.332981379368903
4,22,female,42,105,105,right,same,valid,clock,1,1.3054330701588697,0,j,0,change,1.2939196210700175,1,0,0,0,0.38738585016744764,0,0,5.973550531266483
4,22,female,43,45,125,left,same,catch,clock,1,0.4814409499931571,0,f,1,same,1.2130419470959168,0,0,0,0,0.3874384508208095,0,0,6.751062918078787
4,22,female,44,45,105,right,same,catch,clock,1,0.5992975246899732,0,f,1,same,0.8559187922883211,0,0,0,0,0.3874615437907778,0,0,6.408454977688962
4,22,female,45,105,105,left,same,valid,anti,1,0.4322516415249993,0,f,1,same,1.5029401840765786,1,0,0,0,0.3875080504658399,0,0,5.235967813531715
4,22,female,46,165,115,right,change,valid,anti,2,0.9135444116300278,1,j,1,change,1.01725654236634,1,0,0,0,0.3874329983145799,0,0,4.856518247294844
4,22,female,47,135,85,right,change,valid,anti,3,2.265411349938404,1,f,0,same,3.02117689471379,1,0,0,0,0.387484316024711,0,0,8.643897746896073
4,22,female,48,45,355,right,same,catch,anti,1,0.6414604763822354,0,f,1,same,0.5432152854937158,0,0,0,0,0.3875045223730922,0,0,5.440714573460355
4,22,female,49,135,135,right,same,valid,clock,1,0.6640502118143559,0,f,1,same,0.9984765054687159,1,0,0,0,0.38755038757699367,0,0,5.0024007066449485
4,22,female,50,75,75,left,same,valid,anti,3,1.3054401263434556,1,f,1,same,1.1163770209559516,1,0,0,0,0.38746507188261603,0,0,5.768829430194273
4,22,female,51,75,25,right,change,valid,anti,2,0.9452680580607193,1,j,1,change,5.21744949695767,1,0,0,0,0.3875625755326837,0,0,9.539247784999134
4,22,female,52,15,325,left,change,valid,anti,2,0.7293773365599918,1,f,0,same,2.6238456722494448,1,0,0,0,0.3874474314197869,0,0,6.686282006214242
4,22,female,53,45,125,left,change,catch,clock,1,0.3933919467117448,0,f,0,same,2.8124321644008887,0,0,0,0,0.3874823916103196,0,0,7.9055045300710844
4,22,female,54,75,25,left,change,valid,anti,1,1.5441271370618779,0,j,1,change,2.2145955907826647,1,0,0,0,0.38745256319180044,0,0,7.138065809832369
4,22,female,55,105,155,left,change,valid,clock,1,0.6734378247447239,0,f,0,same,3.633168496570761,1,0,0,0,0.3874519217197303,0,0,7.654976278388858
4,22,female,56,45,45,left,same,valid,anti,1,0.6654152629134842,0,j,0,change,1.5935191504868271,1,0,0,0,0.38756033038316673,0,0,5.081916216140598
4,22,female,57,135,135,left,same,valid,anti,2,5.697358613292636,1,f,1,same,1.3967298430452502,1,0,0,0,0.3874718073320764,0,0,10.010854016509256
4,22,female,58,135,85,left,change,valid,anti,2,1.1854692619735943,1,j,1,change,1.4344326442214879,1,0,0,0,0.38748752338142367,0,0,5.7132093711279595
4,22,female,1,75,125,left,change,valid,clock,1,1.0482469870094064,0,j,1,change,0.9121440796034221,1,0,0,0,0.38747918425360695,0,0,5.016420384420599
4,22,female,2,15,15,left,same,valid,anti,3,1.0574325364550532,1,f,1,same,0.9660299207907883,1,0,0,0,0.38751254076578334,0,0,4.8807369993000975
4,22,female,3,45,45,left,same,valid,anti,4,2.0094360440198216,1,f,1,same,2.2281748984551086,1,0,0,0,0.38749522103898926,0,0,7.267869789007818
4,22,female,4,135,85,right,change,valid,anti,1,0.9933665444450526,0,f,0,same,1.3008648317163534,1,0,0,0,0.38755712302645406,0,0,5.309631821086441
4,22,female,5,135,185,right,change,valid,clock,1,0.817418642184748,0,j,1,change,0.9233618103862682,1,0,0,0,0.3874368471424532,0,0,5.164613423687115
4,22,female,6,105,155,left,change,valid,clock,2,1.0414958214551007,1,j,1,change,1.434017612237767,1,0,0,0,0.3875147859162098,0,0,5.558934541694725
4,22,female,7,45,125,left,same,catch,clock,2,0.9454130305930448,1,f,1,same,1.6417257247985617,0,0,0,0,0.3874872026462981,0,0,7.452556135160194
4,22,female,8,45,45,right,same,valid,anti,2,2.384063349148164,1,f,1,same,2.098244870153394,1,0,0,0,0.3874775805752506,0,0,8.131076337659579
4,22,female,9,15,15,right,same,valid,anti,1,0.5212689458576278,0,j,0,change,0.39872898860448913,1,0,0,0,0.38745994011242146,0,0,3.833926587449241
4,22,female,10,45,95,left,change,valid,clock,2,1.6173251156569677,1,f,0,same,2.9609603724638873,1,0,0,0,0.38747629763292935,0,0,7.378927729268071
4,22,female,11,135,185,left,change,valid,clock,1,1.0014667243131044,0,f,0,same,0.8631687018414596,1,0,0,0,0.38751895547920867,0,0,4.869997806168612
4,22,female,12,15,325,left,change,valid,anti,1,0.6653944150939424,0,f,0,same,1.3728164314179594,1,0,0,0,0.3875045223730922,0,0,5.050560453546495
4,22,female,13,45,55,left,same,catch,anti,1,4.593335368935186,0,f,1,same,5.013146955961929,0,0,0,0,0.38742497992188873,0,0,14.28527290758393
4,22,female,14,135,135,right,same,valid,clock,1,0.6161095273891988,0,f,1,same,2.1341486648407226,1,0,0,0,0.3873996418024035,0,0,6.343186226839862
4,22,female,15,75,125,right,change,valid,clock,1,0.513466087974848,0,f,0,same,0.45326015000227926,1,0,0,0,0.3875006735452189,0,0,3.8640937035743264
4,22,female,16,135,135,right,same,valid,anti,1,0.8814394104620078,0,f,1,same,1.3919358066750647,1,0,0,0,0.38744390332703915,0,0,5.058008577755572
4,22,female,17,45,355,left,change,valid,anti,1,0.8495836209267509,0,f,0,same,0.03593490604998806,1,0,0,0,0.3874653926186511,0,0,4.050415160277225
4,22,female,18,15,15,left,same,valid,clock,1,0.42532086398477986,0,f,1,same,7.259994765593547,1,0,0,0,0.38742305550840683,0,0,10.54456301686605
4,22,female,19,165,165,left,same,valid,clock,2,4.289244898377547,1,f,1,same,1.449755791845746,1,0,0,0,0.38747052438975516,0,0,8.57372590954219
4,22,female,20,165,135,right,change,catch,anti,1,0.9774083401543976,0,f,0,same,1.4040400509065876,0,0,0,0,0.3873836050179307,0,0,6.953904828740633
4,22,female,21,45,355,right,same,catch,anti,1,1.1120451647166192,0,j,0,change,5.918072558110907,0,0,0,0,0.38747822204732074,0,0,12.211189698483395
4,22,female,22,165,215,right,change,valid,clock,2,0.6960775949446543,1,f,0,same,1.2798069299433337,1,0,0,0,0.387510937087427,0,0,5.088925894660861
4,22,female,23,105,55,left,change,valid,anti,2,0.8014197044612956,1,f,0,same,1.5234319873552522,1,0,0,0,0.3875045223730922,0,0,5.457711319916598
4,22,female,24,105,105,right,same,valid,anti,2,2.505286686389809,1,f,1,same,6.027781804792539,1,0,0,0,0.3874737317464678,0,0,11.716443349097062
4,22,female,25,75,125,left,same,catch,clock,1,0.47335135440243903,0,f,1,same,4.0931050807093925,0,0,0,0,0.38741920667962404,0,0,9.04374032981923
4,22,female,26,45,45,right,same,valid,clock,1,0.896262210407258,0,f,1,same,2.068319588740451,1,0,0,0,0.38749618324527546,0,0,6.534210951712339
4,22,female,27,75,75,left,same,valid,anti,1,2.7373399208172486,0,f,1,same,5.544526132261126,1,0,0,0,0.3874451862702699,0,0,11.428577614187816
4,22,female,28,105,155,right,change,valid,clock,2,0.8494537229717025,1,j,1,change,0.9499151974832785,1,0,0,0,0.38748110866799834,0,0,4.984351626386342
4,22,female,29,75,75,right,same,valid,clock,1,3.2732251128345524,0,f,1,same,6.207767127927582,1,0,0,0,0.38746090231870767,0,0,12.566031781057973
4,22,female,30,165,115,left,change,valid,anti,3,1.1295194866179372,1,j,1,change,1.0948206959192248,1,0,0,0,0.3874788635184814,0,0,5.5265639713752535
4,22,female,31,135,135,left,same,catch,anti,1,0.45746371196401014,0,j,0,change,0.9131999414976235,0,0,0,0,0.3874615437907778,0,0,6.361392788322519
4,22,female,32,45,45,left,same,valid,clock,3,1.200012380397311,1,f,1,same,0.8533554726491275,1,0,0,0,0.3875045223740017,0,0,5.293547246932576
4,22,female,33,75,75,right,same,valid,anti,1,0.8974409140710122,0,f,1,same,1.361122728870214,1,0,0,0,0.38755648155529343,0,0,5.219724475212388
4,22,female,34,15,65,left,change,valid,clock,3,8.721351888106256,1,f,0,same,0.843446022749049,1,0,0,0,0.387486561174228,0,0,12.888312776313796
4,22,female,35,75,75,left,same,valid,clock,1,3.9293281357049636,0,f,1,same,1.8885318387910957,1,0,0,0,0.3875054845802879,0,0,8.617242045113017
4,22,female,36,105,105,left,same,valid,clock,3,0.8814839927226785,1,f,1,same,0.8635805264684677,1,0,0,0,0.38746763776907756,0,0,4.97305788124595
4,22,female,37,75,25,left,change,valid,anti,3,0.8653557985162479,1,f,0,same,4.27599434478816,1,0,0,0,0.38745897790522577,0,0,7.91507752823145
4,22,female,38,165,165,left,same,valid,anti,1,1.6252761534296951,0,f,1,same,4.900180959077261,1,0,0,0,0.3874968247164361,0,0,9.595707530103937
4,22,female,39,15,65,right,change,valid,clock,2,1.0734657928978777,1,j,1,change,1.240230390861143,1,0,0,0,0.3875061260514485,0,0,5.2326032961364035
4,22,female,40,165,115,right,change,valid,anti,2,0.8732689894768555,1,j,1,change,0.9925663088970396,1,0,0,0,0.38750099428034446,0,0,5.34939502834095
4,22,female,41,135,85,left,change,valid,anti,1,6.065272599677883,0,f,0,same,2.1669249658098124,1,0,0,0,0.38741054681577225,0,0,11.061508124876127
4,22,female,42,45,95,right,change,valid,clock,2,0.8574772470101379,1,f,0,same,0.7002606298219689,1,0,0,0,0.3874092638725415,0,0,4.512369171911814
4,22,female,43,105,85,right,same,catch,anti,1,1.7532609197669444,0,f,1,same,5.869836476115779,0,0,0,0,0.38752408725031273,0,0,12.19482383912873
4,22,female,44,15,325,right,change,valid,anti,2,2.263890742028707,1,f,0,same,2.73901640627264,1,0,0,0,0.38752184210079577,0,0,7.985748751055326
4,22,female,45,135,135,left,same,valid,anti,1,1.0334639582888485,0,f,1,same,2.0918381747314925,1,0,0,0,0.38747918425360695,0,0,6.308823567145737
4,22,female,46,15,115,right,change,catch,clock,1,1.7134624315867768,0,f,0,same,1.350464361133163,0,0,0,0,0.3875186347440831,0,0,7.889713749810653
4,22,female,47,105,55,right,change,valid,anti,1,1.76816582804895,0,f,0,same,3.3802209355735613,1,0,0,0,0.3875436521275333,0,0,7.9988540113772615
4,22,female,48,75,25,right,change,valid,anti,1,0.9134985464261263,0,f,0,same,1.1151332079471103,1,0,0,0,0.3874663548258468,0,0,5.450560196956758
4,22,female,49,105,105,right,same,valid,clock,1,2.2173228063602437,0,f,1,same,4.3536627374405725,1,0,0,0,0.38745994011242146,0,0,10.020605985185284
4,22,female,50,165,165,right,same,valid,anti,1,0.8174112652632175,0,f,1,same,1.2515863587259446,1,0,0,0,0.3874349227289713,0,0,5.356166720977853
4,22,female,51,45,355,right,change,valid,anti,1,0.929438789517917,0,f,0,same,1.376731010522235,1,0,0,0,0.387472128069021,0,0,5.548521536759836
4,22,female,52,15,15,right,same,valid,clock,4,0.9374170898236116,1,f,1,same,0.9349208039438963,1,0,0,0,0.38748207087519404,0,0,4.905198548221961
4,22,female,53,165,215,left,change,valid,clock,1,0.6814411424347782,0,f,0,same,0.516456306818327,1,0,0,0,0.38745160098369524,0,0,4.333760446361339
4,22,female,54,105,105,left,same,valid,anti,4,0.8254290160602977,1,j,0,change,2.6712221825937377,1,0,0,0,0.3874480728909475,0,0,6.315394479241149
4,22,female,55,165,165,right,same,valid,clock,1,1.2492969473660196,0,f,1,same,6.681632942377291,1,0,0,0,0.3874814294031239,0,0,10.939134629447835
4,22,female,56,45,105,right,same,catch,clock,1,0.6175345560632195,0,f,1,same,0.04908923893253814,0,0,0,0,0.3874435825919136,0,0,5.1288825055362395
4,22,female,57,135,135,left,same,valid,clock,3,1.1040463373274179,1,f,1,same,0.7698394268836637,1,0,0,0,0.38745544981247804,0,0,5.092522945431483
4,22,female,58,45,125,left,change,catch,clock,1,0.4974655465721298,0,f,0,same,2.1251561982817293,0,0,0,0,0.38748014646080264,0,0,7.141285354695356
4,22,female,1,45,355,right,change,valid,anti,3,1.5042494271656324,1,j,1,change,1.0961937654110443,1,0,0,0,0.3874920136813671,0,0,5.329195415276445
4,22,female,2,165,135,right,change,catch,anti,1,0.9615290368437854,0,f,0,same,0.08495486607353087,0,0,0,0,0.3874281872786014,0,0,5.924324658929436
4,22,female,3,165,115,right,change,valid,anti,2,1.8318886328697772,1,j,1,change,2.0484573896219445,1,0,0,0,0.38745224245576537,0,0,7.42950550254227
4,22,female,4,45,105,right,same,catch,clock,2,0.9053101642421097,1,f,1,same,1.2632742880314254,0,0,0,0,0.38747629763201985,0,0,6.969585275922327
4,22,female,5,135,135,right,same,valid,clock,1,0.8796946083039074,0,f,1,same,0.9679889743893,1,0,0,0,0.387481750139159,0,0,5.451686620703185
4,22,female,6,75,125,left,same,catch,clock,2,1.6734012608758349,1,f,1,same,1.7029936186427221,0,0,0,0,0.3874641096763298,0,0,8.077332903119895
4,22,female,7,105,105,left,same,valid,anti,3,0.943774712684899,1,f,1,same,0.9743308812021496,1,0,0,0,0.38750772972980485,0,0,5.123873896990517
4,22,female,8,45,95,right,change,valid,clock,2,6.017314916261967,1,f,0,same,2.3706472959411258,1,0,0,0,0.3874512802485697,0,0,11.285499667717886
4,22,female,9,45,45,left,same,valid,clock,2,1.3614373705831895,1,j,0,change,1.3841948507806592,1,0,0,0,0.38747629763201985,0,0,6.069421636573679
4,22,female,10,75,125,right,change,valid,clock,1,2.233288387572429,0,j,1,change,3.9359708925949235,1,0,0,0,0.38744005450007535,0,0,9.511781584126766
4,22,female,11,15,65,left,change,valid,clock,2,5.025311177767435,1,f,0,same,5.363954825019391,1,0,0,0,0.3875375581492335,0,0,13.545527469087574
4,22,female,12,105,155,left,change,valid,clock,2,3.457251705673116,1,j,1,change,4.8149428833885395,1,0,0,0,0.3874615437907778,0,0,11.70753267013788
4,22,female,13,165,115,left,change,valid,anti,2,1.161529550020532,1,j,1,change,1.10126972845228,1,0,0,0,0.38749137221020646,0,0,5.09413079344904
4,22,female,14,45,95,left,change,valid,clock,3,1.2814676993502871,1,j,1,change,0.8734059436173993,1,0,0,0,0.38748399528867594,0,0,5.568133241304167
4,22,female,15,75,25,left,change,valid,anti,3,1.2494553907972659,1,j,1,change,1.227705341404544,1,0,0,0,0.3874548083404079,0,0,5.32569522668382
4,22,female,16,135,185,left,change,valid,clock,1,2.4413951745955274,0,f,0,same,1.4336378611797045,1,0,0,0,0.38751254076578334,0,0,7.3490428605509805
4,22,female,17,75,75,left,same,valid,clock,3,0.8734992777026491,1,f,1,same,1.0737599075255275,1,0,0,0,0.3874397337631308,0,0,4.648284448938284
4,22,female,18,45,355,left,change,valid,anti,2,1.5293530889412068,1,j,1,change,1.5983459018953,1,0,0,0,0.3874499973062484,0,0,6.3021978092474455
4,22,female,19,45,45,right,same,valid,anti,1,0.7614133795532325,0,f,1,same,0.8522380295025869,1,0,0,0,0.3874464692135007,0,0,4.822569657377244
4,22,female,20,75,75,right,same,valid,clock,1,1.6413225600354053,0,f,1,same,4.5219299821164896,1,0,0,0,0.3874679585051126,0,0,9.136049344544517
4,22,female,21,15,325,right,change,valid,anti,2,1.5053287027649276,1,f,0,same,5.110413902993969,1,0,0,0,0.38743428125690116,0,0,9.568974851756138
4,22,female,22,135,85,right,change,valid,anti,1,0.6970872708989191,0,f,0,same,3.3156308614452428,1,0,0,0,0.38743363978483103,0,0,7.421911122856727
4,22,female,23,45,125,left,change,catch,clock,2,4.817159167010686,1,f,0,same,9.190449004307993,0,0,0,0,0.3874567327557088,0,0,18.622049552381213
4,22,female,24,135,135,left,same,valid,clock,3,1.1762487523374148,1,f,1,same,0.9313911076669683,1,0,0,0,0.3874422996495923,0,0,5.48587961121666
4,22,female,25,15,325,left,change,valid,anti,2,2.5133490194466503,1,f,0,same,3.0957559611933902,1,0,0,0,0.38748880632465443,0,0,8.497690061555659
4,22,female,26,105,105,left,same,valid,clock,3,0.9375271021654044,1,f,1,same,1.0161570604186636,1,0,0,0,0.38747533542573365,0,0,5.154052880335257
4,22,female,27,15,15,right,same,valid,anti,1,0.9214213594568719,0,f,1,same,2.3282649610364388,1,0,0,0,0.3874435825919136,0,0,6.517004764849844
4,22,female,28,15,15,right,same,valid,clock,2,1.473000148821484,1,j,0,change,5.9685525069990035,1,0,0,0,0.38749265515252773,0,0,10.58555528328634
4,22,female,29,135,185,right,change,valid,clock,2,0.7614640557931125,1,j,1,change,1.129825147731026,1,0,0,0,0.3874756561608592,0,0,5.248401453317456
4,22,female,30,105,105,right,same,valid,clock,1,0.5293261471433652,0,f,1,same,6.091423463483807,1,0,0,0,0.38749265515252773,0,0,9.8136022082017
4,22,female,31,45,55,left,same,catch,anti,1,0.9134574922572938,0,f,1,same,1.5633950129449659,0,0,0,0,0.3874798257247676,0,0,7.125740899445191
4,22,female,32,75,125,left,change,valid,clock,2,1.2482898372973068,1,f,0,same,0.8857978877631467,1,0,0,0,0.38746859997627325,0,0,5.605383484421509
4,22,female,33,45,125,left,same,catch,clock,1,0.6255407603739513,0,f,1,same,1.0440152003056937,0,0,0,0,0.38746859997536376,0,0,6.049222664979425
4,22,female,34,165,165,right,same,valid,anti,1,1.5358656271409927,0,f,1,same,5.573734248670007,1,0,0,0,0.38750099428034446,0,0,10.612791516669859
4,22,female,35,135,135,left,same,valid,anti,1,0.8735124278664443,0,f,1,same,1.0529355013359236,1,0,0,0,0.3874111882869329,0,0,5.187998262895235
4,22,female,36,165,215,right,change,valid,clock,1,0.41746668839186896,0,f,0,same,1.2025981515353124,1,0,0,0,0.38751991768640437,0,0,5.023589147843268
4,22,female,37,75,75,right,same,valid,anti,2,0.865351308217214,1,f,1,same,2.5821288639026534,1,0,0,0,0.38744678994862625,0,0,6.543320807535565
4,22,female,38,105,155,right,change,valid,clock,2,1.3853732337083784,1,j,1,change,3.4769939496418374,1,0,0,0,0.38752216283683083,0,0,7.901179088546087
4,22,female,39,135,135,right,same,valid,anti,3,1.329285862741017,1,f,1,same,0.9723747142243155,1,0,0,0,0.38742497992188873,0,0,5.766841831118654
4,22,female,40,45,355,right,same,catch,anti,2,1.6573474773495036,1,f,1,same,3.6906263711452993,0,0,0,0,0.38741824447242834,0,0,9.93254832203911
4,22,female,41,105,55,left,change,valid,anti,2,1.7754760359121065,1,f,0,same,2.128416155841478,1,0,0,0,0.3876013845519992,0,0,6.902574288800679
4,22,female,42,165,165,left,same,valid,clock,1,2.729208629585628,0,f,1,same,6.66463138488507,1,0,0,0,0.3874615437907778,0,0,12.404904112858276
4,22,female,43,135,85,left,change,valid,anti,1,3.033453374011515,0,f,0,same,1.204180340698258,1,0,0,0,0.3875128615009089,0,0,7.2901535425899056
4,22,female,44,105,85,right,same,catch,anti,1,1.5212795301349615,0,f,1,same,7.571951599701606,0,0,0,0,0.38740573578070325,0,0,14.332157409378851
4,22,female,45,15,65,right,change,valid,clock,1,1.8390689427778852,0,f,0,same,6.305464181521529,1,0,0,0,0.38749522103807976,0,0,11.049746747098652
4,22,female,46,45,45,right,same,valid,clock,1,1.1934235071030344,0,f,1,same,1.5412735516219982,1,0,0,0,0.3874827123463547,0,0,5.467401707339377
4,22,female,47,105,105,right,same,valid,anti,2,2.0972916436803644,1,f,1,same,4.852785204590873,1,0,0,0,0.3874499973062484,0,0,10.374143314969842
4,22,female,48,105,55,right,change,valid,anti,2,2.28934336423481,1,j,1,change,2.586087063062223,1,0,0,0,0.38735794616241037,0,0,8.031964518934728
4,22,female,49,15,15,left,same,valid,clock,3,0.7374133692901523,1,f,1,same,1.4568309004462208,1,0,0,0,0.3874169615291976,0,0,5.324743924624272
4,22,female,50,165,165,right,same,valid,clock,1,0.7294055613001547,0,f,1,same,0.555291946455327,1,0,0,0,0.3875176725368874,0,0,4.404145893684472
4,22,female,51,15,115,right,change,catch,clock,2,1.7693025153375856,1,f,0,same,4.78447587939263,0,0,0,0,0.38739066120251664,0,0,11.009479022603045
4,22,female,52,75,75,left,same,valid,anti,2,4.103934400570324,1,f,1,same,6.059753700647889,1,0,0,0,0.3875128615009089,0,0,13.540410451878415
4,22,female,53,165,165,left,same,valid,anti,1,0.9533092225619839,0,f,1,same,2.609214672246708,1,0,0,0,0.38747244880414655,0,0,6.637957401168023
4,22,female,54,75,25,right,change,valid,anti,1,2.193511067946929,0,f,0,same,0.007704071290390857,1,0,0,0,0.3874788635184814,0,0,5.007094032007444
4,22,female,55,165,215,left,change,valid,clock,2,0.9133484421226967,1,j,1,change,2.6014701882595546,1,0,0,0,0.38746314746913413,0,0,6.358179978908083
4,22,female,56,135,135,left,same,catch,anti,1,2.4813790480056923,0,f,1,same,2.34034226347012,0,0,0,0,0.38750676752351865,0,0,9.106154853757289
4,22,female,57,15,15,left,same,valid,anti,1,1.9521218590352873,0,f,1,same,2.4715391977497347,1,0,0,0,0.38749746618759673,0,0,7.62393996854189
4,22,female,58,45,45,left,same,valid,anti,2,0.9534240459397552,1,f,1,same,1.4142070515663363,1,0,0,0,0.38752953975745186,0,0,5.217940864036791
4,22,female,1,165,165,right,same,valid,clock,1,0.6401432149004904,0,j,0,change,1.4540603855493828,1,0,0,0,0.3874977869236318,0,0,5.113135666066228
4,22,female,2,15,115,right,change,catch,clock,1,0.8895694187503977,0,f,0,same,0.14790566008741735,0,0,0,0,0.3875022772235752,0,0,5.581196485250075
4,22,female,3,135,185,left,change,valid,clock,2,0.8322898732194517,1,j,1,change,0.9293884340149816,1,0,0,0,0.38748463676074607,0,0,5.073610123958133
4,22,female,4,105,105,left,same,valid,anti,3,1.2415245593729196,1,f,1,same,1.0116779864983982,1,0,0,0,0.38745160098460474,0,0,5.2342833096845425
4,22,female,5,135,135,right,same,valid,clock,1,1.7695158045726203,0,f,1,same,0.16336993141430867,1,0,0,0,0.38744935583508777,0,0,5.3435229993147
4,22,female,6,15,15,right,same,valid,anti,2,1.8413442417677288,1,f,1,same,2.0980787290654916,1,0,0,0,0.3873977173889216,0,0,6.959025694777665
4,22,female,7,105,105,right,same,valid,clock,1,4.6254156734548815,0,f,1,same,0.940556771500269,1,0,0,0,0.3875234457791521,0,0,8.399986913983412
4,22,female,8,165,115,right,change,valid,anti,1,0.6335219473021425,0,f,0,same,1.1929154617700988,1,0,0,0,0.38752408725031273,0,0,4.734081246198912
4,22,female,9,15,15,right,same,valid,clock,1,1.5453084066111842,0,f,1,same,4.527764805800871,1,0,0,0,0.38745833643406513,0,0,9.301377046614107
4,22,female,10,75,75,right,same,valid,anti,1,1.2572697951654845,0,f,1,same,4.283532595726683,1,0,0,0,0.38742465918676317,0,0,8.546463055096865
4,22,female,11,45,125,left,change,catch,clock,1,1.0973657336244287,0,f,0,same,2.4031208224178044,0,0,0,0,0.38746475114749046,0,0,8.373552519828081
4,22,female,12,75,75,right,same,valid,clock,1,1.464035907001744,0,f,1,same,3.124945154197121,1,0,0,0,0.38753242637903895,0,0,7.7378059497750655
4,22,female,13,45,55,left,same,catch,anti,1,0.6894646664732136,0,f,1,same,0.5387660399919696,0,0,0,0,0.38747725983921555,0,0,6.157942121320957
4,22,female,14,45,45,right,same,valid,anti,1,3.0484259575241595,0,f,1,same,1.068605364240284,1,0,0,0,0.38744775215582195,0,0,7.4672560933368
4,22,female,15,165,215,right,change,valid,clock,3,0.9934852166506971,1,j,1,change,1.0873757790668606,1,0,0,0,0.38743716787757876,0,0,5.777929022474382
4,22,female,16,165,165,left,same,valid,anti,1,0.609462280200205,0,f,1,same,0.9403572739001902,1,0,0,0,0.3874291494857971,0,0,4.860987378408936
4,22,female,17,45,355,left,change,valid,anti,2,0.6335129667022557,1,f,0,same,1.0778284397620155,1,0,0,0,0.38742850801463646,0,0,4.984242576251745
4,22,female,18,15,325,left,change,valid,anti,2,2.369346391980798,1,f,0,same,4.31154982051612,1,0,0,0,0.38758887586027413,0,0,9.917797046152373
4,22,female,19,45,105,right,same,catch,clock,1,0.6494480780229424,0,f,1,same,1.2353006832954634,0,0,0,0,0.387547180220281,0,0,6.3455035422057335
4,22,female,20,75,75,left,same,valid,clock,2,0.93836903335432,1,f,1,same,0.984667871777674,1,0,0,0,0.387462505997064,0,0,5.42858883993722
4,22,female,21,135,185,right,change,valid,clock,1,1.5854173669395095,0,f,0,same,1.9469006027266005,1,0,0,0,0.38756578289030585,0,0,6.75041984301879
4,22,female,22,15,15,left,same,valid,clock,3,0.889456840523053,1,f,1,same,0.9930525442041471,1,0,0,0,0.3874137541724849,0,0,5.017893202712912
4,22,female,23,15,15,left,same,valid,anti,1,0.6255099697482365,0,f,1,same,0.306022261623184,1,0,0,0,0.38746218526193843,0,0,3.913326952831085
4,22,female,24,45,355,right,change,valid,anti,3,3.913359988607226,1,j,1,change,1.5429712056329663,1,0,0,0,0.3874387715568446,0,0,8.284445088766915
4,22,female,25,165,165,left,same,valid,clock,2,2.67344616387345,1,f,1,same,0.8055831744622992,1,0,0,0,0.3874044528374725,0,0,6.83147873265807
4,22,female,26,75,25,left,change,valid,anti,2,1.5534156426647314,1,f,0,same,2.6488527925812377,1,0,0,0,0.38749714545247116,0,0,7.2299488875605675
4,22,female,27,45,45,left,same,valid,anti,1,5.105331525239308,0,f,1,same,2.37510071100769,1,0,0,0,0.38749137221020646,0,0,10.20559382288684
4,22,female,28,45,355,right,same,catch,anti,1,0.6254631423371393,0,f,1,same,0.6908188125589731,0,0,0,0,0.3874987491308275,0,0,6.1428367532307675
4,22,female,29,165,215,left,change,valid,clock,1,2.6158760318066925,0,f,0,same,5.456771243608273,1,0,0,0,0.38748752338142367,0,0,11.269910309471015
4,22,female,30,15,65,left,change,valid,clock,3,2.6734522578508404,1,j,1,change,1.2821473382791737,1,0,0,0,0.3874612230556522,0,0,6.72524016688476
4,22,female,31,165,165,right,same,valid,anti,1,1.8333489424703657,0,f,1,same,3.690351500658835,1,0,0,0,0.3874532046620516,0,0,8.640815476908756
4,22,female,32,75,125,right,change,valid,clock,1,0.7049751237400415,0,f,0,same,4.737071785779335,1,0,0,0,0.3875263324007392,0,0,8.700175955599661
4,22,female,33,165,135,right,change,catch,anti,1,0.7934125379424586,0,f,0,same,1.9850052857245828,0,0,0,0,0.3874939380957585,0,0,7.047492616664385
4,22,female,34,135,85,left,change,valid,anti,1,2.304266554451715,0,f,0,same,2.59603179388796,1,0,0,0,0.38749073073904583,0,0,8.405153645225255
4,22,female,35,45,95,right,change,valid,clock,1,0.8975040990026173,0,f,0,same,0.4218851432660813,1,0,0,0,0.3875359544708772,0,0,4.435868898644912
4,22,female,36,105,155,left,change,valid,clock,3,1.8573900069022784,1,j,1,change,1.0810566444888536,1,0,0,0,0.3874615437907778,0,0,5.764374090714227
4,22,female,37,45,125,left,same,catch,clock,1,0.7534366829258943,0,f,1,same,0.8778712259036183,0,0,0,0,0.38748399528958544,0,0,6.423619040409903
4,22,female,38,105,55,right,change,valid,anti,1,1.3761690815927068,0,f,0,same,0.9660680883380337,1,0,0,0,0.38742177256517607,0,0,5.434194337603913
4,22,female,39,135,135,left,same,valid,anti,2,1.5695072730031825,1,f,1,same,1.0397959222946156,1,0,0,0,0.3874426203847179,0,0,5.24378318010713
4,22,female,40,75,125,left,change,valid,clock,1,0.7130528521101951,0,f,0,same,1.1305435956783185,1,0,0,0,0.3874718073329859,0,0,5.0568321192422445
4,22,female,41,135,85,right,change,valid,anti,1,0.8333954491454278,0,f,0,same,2.552063741728489,1,0,0,0,0.38749073073904583,0,0,6.433311352247074
4,22,female,42,105,105,right,same,valid,anti,1,2.3614537281036974,0,f,1,same,0.7289125905435867,1,0,0,0,0.3874740524825029,0,0,6.036970561595808
4,22,female,43,105,155,right,change,valid,clock,1,0.8973517495487613,0,f,0,same,1.0582228291959836,1,0,0,0,0.38754397286265885,0,0,5.294706706455145
4,22,female,44,105,55,left,change,valid,anti,1,1.4894513238687068,0,f,0,same,1.4185170977780217,1,0,0,0,0.38750772972980485,0,0,6.197148852151258
4,22,female,45,105,105,left,same,valid,clock,1,1.3374043245430585,0,f,1,same,1.3844568918393634,1,0,0,0,0.3874605815835821,0,0,6.162625824611496
4,22,female,46,45,95,left,change,valid,clock,2,0.8174673940102366,1,f,0,same,0.738671294669075,1,0,0,0,0.3874785427824463,0,0,4.871517131135079
4,22,female,47,45,45,left,same,valid,clock,2,1.4252599242036013,1,j,0,change,5.183098063012949,1,0,0,0,0.3874131127013243,0,0,9.554139543118254
4,22,female,48,75,75,left,same,valid,anti,3,2.769340682884831,1,j,0,change,2.6634209283884047,1,0,0,0,0.3875442935986939,0,0,8.662585411914733
4,22,female,49,45,45,right,same,valid,clock,2,5.249264553061039,1,f,1,same,4.740541504481371,1,0,0,0,0.38744294111984345,0,0,12.87461800379242
4,22,female,50,135,135,left,same,valid,clock,1,2.4253792378804064,0,f,1,same,1.949530635390147,1,0,0,0,0.3874708451257902,0,0,7.2121432456906405
4,22,female,51,75,25,right,change,valid,anti,1,2.593425816400668,0,f,0,same,1.4064891886409896,1,0,0,0,0.38744390332794865,0,0,6.891785702372545
4,22,female,52,105,85,right,same,catch,anti,1,2.1932570452800064,0,f,1,same,4.902170161830327,0,0,0,0,0.38742658360115456,0,0,11.509090932417166
4,22,female,53,135,135,right,same,valid,anti,1,0.7441552335085362,0,f,1,same,2.268498751696825,1,0,0,0,0.3874519217197303,0,0,6.26467814814896
4,22,female,54,135,135,left,same,catch,anti,2,1.0414319950532445,1,j,0,change,4.049113614844828,0,0,0,0,0.3874358849352575,0,0,9.606008277546607
4,22,female,55,75,125,left,same,catch,clock,1,2.7041771333415454,0,j,0,change,6.936980568549188,0,0,0,0,0.387385208696287,0,0,14.26998632383038
4,22,female,56,165,115,left,change,valid,anti,1,3.0718512094308608,0,f,0,same,4.54507683544125,1,0,0,0,0.3874836745535504,0,0,10.928104849780539
4,22,female,57,15,65,right,change,valid,clock,1,1.0174637376230748,0,j,1,change,1.7592006240229239,1,0,0,0,0.3874243384507281,0,0,5.902681093785759
4,22,female,58,15,325,right,change,valid,anti,1,1.5933680839762019,0,f,0,same,2.176369990429521,1,0,0,0,0.3874121504941286,0,0,7.365593784398698
4,22,female,1,135,135,right,same,valid,anti,1,1.0080928029483402,0,f,1,same,1.427320971752124,1,0,0,0,0.38750869193700055,0,0,5.536150761169665
4,22,female,2,15,115,right,change,catch,clock,1,0.8653468179172705,0,f,0,same,0.8960585432441803,0,0,0,0,0.38754012403478555,0,0,6.704338142657434
4,22,female,3,105,55,right,change,valid,anti,1,1.472205045044575,0,f,0,same,0.15481206171534723,1,0,0,0,0.38736083278399747,0,0,4.852732283202386
4,22,female,4,165,115,left,change,valid,anti,1,0.7607635690437746,0,j,1,change,0.9991298440709215,1,0,0,0,0.38751606885853107,0,0,4.871881486879829
4,22,female,5,105,155,left,change,valid,clock,2,1.5529723859408477,1,j,1,change,2.2443544103716704,1,0,0,0,0.38746571335468616,0,0,6.955634556319637
4,22,female,6,45,45,right,same,valid,anti,2,1.3373607044895834,1,f,1,same,1.645919023218994,1,0,0,0,0.3874708451248807,0,0,6.316741569142323
4,22,female,7,165,215,left,change,valid,clock,2,2.76139798424083,1,j,1,change,1.4153514365107185,1,0,0,0,0.3874368471424532,0,0,7.365456188786993
4,22,female,8,105,105,left,same,valid,anti,1,3.1533867123052914,0,f,1,same,2.247100549356219,1,0,0,0,0.38741150902296795,0,0,8.616890518796936
4,22,female,9,165,165,right,same,valid,anti,1,1.025403870381524,0,f,1,same,1.3012041700776535,1,0,0,0,0.3874711658618253,0,0,5.755741168863096
4,22,female,10,15,65,right,change,valid,clock,1,2.07326084279066,0,f,0,same,4.58417002583883,1,0,0,0,0.38742786654256633,0,0,10.238919544093733
4,22,female,11,165,165,left,same,valid,anti,1,4.849280204963179,0,f,1,same,4.389847496593575,1,0,0,0,0.3874977869236318,0,0,12.604673375602033
4,22,female,12,165,135,right,change,catch,anti,1,1.6974381557447487,0,f,0,same,1.899122531296598,0,0,0,0,0.38751831400804804,0,0,8.092802626953016
4,22,female,13,75,125,left,change,valid,clock,2,3.0642353404546157,1,j,1,change,1.1658136166415716,1,0,0,0,0.38756033038316673,0,0,7.395823764719353
4,22,female,14,135,135,left,same,catch,anti,2,5.545359082850155,1,f,1,same,3.0213558652294523,0,0,0,0,0.38748495749587164,0,0,13.599189757497697
4,22,female,15,165,165,left,same,valid,clock,3,1.6242587798187742,1,f,1,same,3.3262789656400855,1,0,0,0,0.38745801569803007,0,0,7.915328022805625
4,22,female,16,135,185,left,change,valid,clock,3,0.9293108159772601,1,j,1,change,0.943088017570517,1,0,0,0,0.3874965039813105,0,0,5.349405612618284
4,22,female,17,75,25,right,change,valid,anti,3,2.545379289198536,1,j,1,change,1.257199874784419,1,0,0,0,0.387416640794072,0,0,6.9419324068776405
4,22,female,18,45,355,right,same,catch,anti,1,2.905226772963033,0,f,1,same,2.8279762989150186,0,0,0,0,0.38749265515252773,0,0,10.057652881874674
4,22,female,19,45,125,left,change,catch,clock,1,0.7998859463878034,0,f,0,same,4.479063977790247,0,0,0,0,0.38743716787757876,0,0,9.995390707388651
4,22,female,20,75,75,right,same,valid,clock,1,0.9602181900754658,0,j,0,change,5.664862635318059,1,0,0,0,0.38751927621524374,0,0,9.949546992910655
4,22,female,21,135,135,left,same,valid,anti,3,1.5453699878635234,1,f,1,same,1.1995248621469727,1,0,0,0,0.3875385203564292,0,0,5.595081454035608
4,22,female,22,135,85,left,change,valid,anti,1,1.337419399121245,0,j,1,change,1.6756149786133392,1,0,0,0,0.38740862240138085,0,0,6.249047094263005
4,22,female,23,45,355,left,change,valid,anti,1,1.0733945895735815,0,j,1,change,2.067798713977936,1,0,0,0,0.3875612925903624,0,0,6.4229355526531435
4,22,female,24,15,65,left,change,valid,clock,1,3.9133872511411028,0,j,1,change,2.9599240754469065,1,0,0,0,0.38751350297297904,0,0,10.131012190522597
4,22,female,25,135,135,right,same,valid,clock,2,10.22530367255149,1,f,1,same,1.5288899466040675,1,0,0,0,0.38742305550840683,0,0,14.917532118472081
4,22,female,26,15,15,left,same,valid,clock,3,1.0093138437223388,1,f,1,same,1.8574108547218202,1,0,0,0,0.3875491046337629,0,0,5.697730345958007
4,22,female,27,105,155,right,change,valid,clock,3,1.7294276920629272,1,f,0,same,1.4884323465794296,1,0,0,0,0.38744390332794865,0,0,6.675265697445866
4,22,female,28,15,15,left,same,valid,anti,3,1.0173909306213318,1,f,1,same,1.2016862999671503,1,0,0,0,0.387542369185212,0,0,5.340648566055279
4,22,female,29,105,105,right,same,valid,anti,1,3.089323286180843,0,f,1,same,3.747400437227043,1,0,0,0,0.3875128615018184,0,0,10.428239879505782
4,22,female,30,45,355,right,change,valid,anti,2,1.1135243977223581,1,j,1,change,1.0832228933441002,1,0,0,0,0.38748880632465443,0,0,5.614321105177623
4,22,female,31,165,115,right,change,valid,anti,1,1.5852172278682701,0,f,0,same,7.597742598061814,1,0,0,0,0.3874150371157157,0,0,12.717083537535473
4,22,female,32,45,45,left,same,valid,clock,4,1.033411036900361,1,f,1,same,1.2152274400923488,1,0,0,0,0.38745833643406513,0,0,5.569785030111234
4,22,female,33,135,135,left,same,valid,clock,4,1.2254075909158928,1,f,1,same,1.682436706018052,1,0,0,0,0.38752280430708197,0,0,6.287214320720523
4,22,female,34,45,45,right,same,valid,clock,1,2.693325682717841,0,f,1,same,4.996645425410861,1,0,0,0,0.38749906986686256,0,0,11.048090788727677
4,22,female,35,135,185,right,change,valid,clock,3,1.3454179057753208,1,j,1,change,0.7653401466150171,1,0,0,0,0.3874159993220019,0,0,5.274097834649183
4,22,female,36,75,75,left,same,valid,clock,4,1.5055477652413174,1,f,1,same,1.0576961811921137,1,0,0,0,0.3874750146896986,0,0,5.69619755009262
4,22,female,37,75,75,right,same,valid,anti,1,2.4813254851442252,0,f,1,same,1.9320771613092802,1,0,0,0,0.3874852782319067,0,0,7.688768670024729
4,22,female,38,105,55,left,change,valid,anti,2,1.3214223858112746,1,f,0,same,0.8722452011525093,1,0,0,0,0.38745705349083437,0,0,5.212997685571281
4,22,female,39,165,215,right,change,valid,clock,2,2.7932188135864635,1,j,1,change,4.945988751157529,1,0,0,0,0.3874435825928231,0,0,10.74441053911869
4,22,female,40,45,125,left,same,catch,clock,2,8.001361202271255,1,f,1,same,1.6360708338361292,0,0,0,0,0.3874965039813105,0,0,13.863707217065894
4,22,female,41,105,105,left,same,valid,clock,1,1.1200513690282605,0,f,1,same,2.4608538882148423,1,0,0,0,0.38749425883088406,0,0,6.732688932565907
4,22,female,42,15,15,right,same,valid,clock,2,1.097151802919143,1,f,1,same,0.9068965229689638,1,0,0,0,0.38747693910409,0,0,5.216537966124633
4,22,female,43,75,125,right,change,valid,clock,1,0.7453150137662305,0,f,0,same,6.331036438139563,1,0,0,0,0.387510937087427,0,0,10.268703060331063
4,22,female,44,105,105,right,same,valid,clock,1,1.0333465690264347,0,f,1,same,3.6908852048482004,1,0,0,0,0.38740381136722135,0,0,7.810096567101937
4,22,female,45,45,95,right,change,valid,clock,1,1.6252601166452223,0,j,1,change,10.619154592036466,1,0,0,0,0.38745256319180044,0,0,15.64878094778669
4,22,female,46,45,95,left,change,valid,clock,3,1.585397481326254,1,f,0,same,1.1660118312984196,1,0,0,0,0.3874718073320764,0,0,5.465410259436794
4,22,female,47,15,325,left,change,valid,anti,2,1.5613208152335574,1,f,0,same,7.910639829214233,1,0,0,0,0.3875064467874836,0,0,12.652113391613057
4,22,female,48,75,75,left,same,valid,anti,1,1.169302258749667,0,f,1,same,3.613987540060407,1,0,0,0,0.3874766183680549,0,0,7.750764313151194
4,22,female,49,165,165,right,same,valid,clock,1,4.761409209989324,0,f,1,same,1.570738256583354,1,0,0,0,0.38750484310821776,0,0,9.821395123277398
4,22,female,50,45,55,left,same,catch,anti,2,1.9694880930082945,1,j,0,change,0.8918155307919733,0,0,0,0,0.3875215213647607,0,0,7.093613446779273
4,22,female,51,135,85,right,change,valid,anti,1,1.6799824365134555,0,j,1,change,9.176175945336581,1,0,0,0,0.3874740524834124,0,0,14.23561051397246
4,22,female,52,45,105,right,same,catch,clock,1,2.6895454918667383,0,f,1,same,1.0091746444331875,0,0,0,0,0.38747341101134225,0,0,8.716145064903685
4,22,female,53,75,25,left,change,valid,anti,1,3.4242540970781192,0,f,0,same,2.769334268170496,1,0,0,0,0.38746667556188186,0,0,9.917781330103935
4,22,female,54,15,15,right,same,valid,anti,1,0.7373315816876129,0,f,1,same,3.5623975249473006,1,0,0,0,0.3875032394298614,0,0,7.514144764695629
4,22,female,55,105,85,right,same,catch,anti,1,0.4734847804502351,0,f,1,same,0.6685555860603927,0,0,0,0,0.38746282673400856,0,0,5.65855376428226
4,22,female,56,75,125,left,same,catch,clock,1,0.6960650862511102,0,f,1,same,2.010272201965563,0,0,0,0,0.38752280430799146,0,0,7.4840802839926255
4,22,female,57,45,45,left,same,valid,anti,2,2.624323889163861,1,f,1,same,0.8786608771733881,1,0,0,0,0.38744935583508777,0,0,6.7597477991121195
4,22,female,58,15,325,right,change,valid,anti,1,2.6173212668290944,0,j,1,change,5.22526518426821,1,0,0,0,0.387549425369798,0,0,10.891437704148302
4,22,female,1,45,125,left,same,catch,clock,1,1.1919506888116302,0,f,1,same,2.685535654261912,0,0,0,0,0.38744101670636155,0,0,8.20061472202542
4,22,female,2,45,355,left,change,valid,anti,1,1.1283802334437496,0,j,1,change,0.650111359431321,1,0,0,0,0.38747533542573365,0,0,5.091053655231917
4,22,female,3,165,215,left,change,valid,clock,3,0.897354956905474,1,j,1,change,1.245411555208193,1,0,0,0,0.38744197891355725,0,0,5.403901493088597
4,22,female,4,135,185,left,change,valid,clock,1,0.6813442802576901,0,f,0,same,2.362714540104207,1,0,0,0,0.3874718073329859,0,0,6.221559404099025
4,22,female,5,165,135,right,change,catch,anti,1,0.8014456840519415,0,f,0,same,0.7466896869354969,0,0,0,0,0.38752087989360007,0,0,5.815017294067729
4,22,female,6,45,355,right,change,valid,anti,1,0.7443271478387032,0,j,1,change,1.3560862163194543,1,0,0,0,0.387472128069021,0,0,5.239610408771114
4,22,female,7,105,105,left,same,valid,anti,1,0.5694893118052278,0,f,1,same,0.9358098832781252,1,0,0,0,0.38744775215582195,0,0,4.724722820215902
4,22,female,8,45,45,left,same,valid,clock,1,1.993211308372338,0,f,1,same,10.563193590931405,1,0,0,0,0.38749457956691913,0,0,15.684538487000282
4,22,female,9,45,105,right,same,catch,clock,1,0.5054294137717079,0,f,1,same,0.5849417159115546,0,0,0,0,0.38749618324527546,0,0,5.534250722937941
4,22,female,10,75,75,left,same,valid,anti,1,0.5675135799483542,0,f,1,same,1.0129003102156275,1,0,0,0,0.38750003207314876,0,0,4.577727728755235
4,22,female,11,135,135,left,same,catch,anti,1,0.7453448421856592,0,f,1,same,2.6051955333059595,0,0,0,0,0.38741343343644985,0,0,7.889572946842236
4,22,female,12,75,75,left,same,valid,clock,2,1.6961308370682673,1,f,1,same,4.841616546367732,1,0,0,0,0.38742626286421,0,0,9.861737579190049
4,22,female,13,105,155,left,change,valid,clock,1,1.049265002091488,0,f,0,same,3.8336793002326885,1,0,0,0,0.3875491046346724,0,0,7.921344703628165
4,22,female,14,15,325,left,change,valid,anti,1,3.2732873355580523,0,f,0,same,4.406792283869436,1,0,0,0,0.3874483936269826,0,0,10.88385615389143
4,22,female,15,75,25,left,change,valid,anti,1,2.8972969037458824,0,f,0,same,4.51993564759141,1,0,0,0,0.3874727695392721,0,0,10.697322370159782
4,22,female,16,15,115,right,change,catch,clock,1,0.5934101003531396,0,f,0,same,1.8273636937465199,0,0,0,0,0.38750580531632295,0,0,6.93840623869437
4,22,female,17,15,65,right,change,valid,clock,1,2.1993997752288124,0,f,0,same,3.9417056467445946,1,0,0,0,0.3874326775785448,0,0,9.530767212601859
4,22,female,18,45,55,left,same,catch,anti,1,0.5054935609114182,0,f,1,same,0.6323538279175409,0,0,0,0,0.3874881648534938,0,0,5.534354641301434
4,22,female,19,75,125,left,same,catch,clock,1,0.5604140954346803,0,f,1,same,0.3993444803963939,0,0,0,0,0.3874243384507281,0,0,5.643827826515917
4,22,female,20,135,135,right,same,valid,anti,1,1.615900086982947,0,f,1,same,2.2913797151359176,1,0,0,0,0.38748559896794177,0,0,7.209338412076249
4,22,female,21,135,135,left,same,valid,clock,3,0.9854796538111259,1,f,1,same,0.9562497273745976,1,0,0,0,0.38750003207314876,0,0,5.0808770325020305
4,22,female,22,75,75,right,same,valid,anti,2,0.8332822294469224,1,f,1,same,5.763384621108344,1,0,0,0,0.3875176725359779,0,0,9.353309928181261
4,22,female,23,105,55,left,change,valid,anti,1,1.49740332384863,0,f,0,same,1.74293611714711,1,0,0,0,0.3874596193772959,0,0,6.015862304318944
4,22,female,24,15,15,right,same,valid,clock,1,0.8734364135088981,0,f,1,same,1.670208337074655,1,0,0,0,0.3874968247164361,0,0,5.632647301073121
4,22,female,25,45,45,right,same,valid,clock,2,1.0973301319627353,1,f,1,same,2.775033741394509,1,0,0,0,0.3874422996486828,0,0,6.759571073745974
4,22,female,26,105,85,right,same,catch,anti,1,1.8333030772664642,0,f,1,same,4.298692809619752,0,0,0,0,0.38749361735972343,0,0,10.744302130455253
4,22,female,27,75,75,right,same,valid,clock,1,1.0882654998731596,0,f,1,same,0.6389632282935054,1,0,0,0,0.3875118992937132,0,0,4.805630964080592
4,22,female,28,135,85,left,change,valid,anti,1,0.6254660289578169,0,f,0,same,0.16986226326480391,1,0,0,0,0.3873605120479624,0,0,3.744117065961291
4,22,female,29,45,355,right,same,catch,anti,1,0.6491279838046466,0,f,1,same,1.621313143235966,0,0,0,0,0.3874872026453886,0,0,6.548305040168998
4,22,female,30,75,25,right,change,valid,anti,1,0.9843618899303692,0,f,0,same,1.2702454782684072,1,0,0,0,0.3874461484774656,0,0,5.677602577688049
4,22,female,31,135,185,right,change,valid,clock,1,8.833269079283127,0,f,0,same,1.680865101134259,1,0,0,0,0.3875080504658399,0,0,13.741565613541752
4,22,female,32,165,115,right,change,valid,anti,1,0.7376070936461474,0,f,0,same,1.0105400162683509,1,0,0,0,0.38752023842243943,0,0,4.588798562590455
4,22,female,33,165,215,right,change,valid,clock,3,0.9453469590407622,1,j,1,change,3.7072667802494834,1,0,0,0,0.3874965039813105,0,0,7.977352852879449
4,22,female,34,45,45,left,same,valid,anti,1,0.7374864970261115,0,j,0,change,2.0635226657504973,1,0,0,0,0.3874329983136704,0,0,5.8683829019655604
4,22,female,35,105,105,right,same,valid,anti,1,0.5614026028342778,0,j,0,change,1.3614582184036408,1,0,0,0,0.38748014646080264,0,0,4.7776666606796425
4,22,female,36,105,105,right,same,valid,clock,1,1.305514537025374,0,f,1,same,0.23639631641526648,1,0,0,0,0.38746378894029476,0,0,4.427151944042635
4,22,female,37,165,115,left,change,valid,anti,4,1.897493193988339,1,j,1,change,1.0661549435626512,1,0,0,0,0.38752023842243943,0,0,5.970978231026493
4,22,female,38,45,95,right,change,valid,clock,1,2.6733829789409356,0,f,0,same,3.3180216252821992,1,0,0,0,0.3874403752352009,0,0,9.130274819169244
4,22,female,39,15,65,left,change,valid,clock,1,6.625429785824963,0,j,1,change,0.8270868988456641,1,0,0,0,0.3875436521275333,0,0,10.39508575189484
4,22,female,40,105,55,right,change,valid,anti,2,5.897333467613862,1,f,0,same,1.447454834000382,1,0,0,0,0.3875042016379666,0,0,10.49222761200781
4,22,female,41,75,125,left,change,valid,clock,1,1.0653454066796257,0,f,0,same,6.013194424844187,1,0,0,0,0.38747052438975516,0,0,10.14306030600801
4,22,female,42,45,125,left,change,catch,clock,1,0.5854632321425015,0,f,0,same,0.3204181623641489,0,0,0,0,0.38749522103807976,0,0,5.8002018710431
4,22,female,43,15,15,left,same,valid,anti,2,1.816205299066496,1,f,1,same,0.49234820862693596,1,0,0,0,0.387484316024711,0,0,5.526233934348966
4,22,female,44,75,125,right,change,valid,clock,2,0.8493850855338678,1,f,0,same,1.9506997169828537,1,0,0,0,0.38745641201967373,0,0,5.410108049439259
4,22,female,45,135,135,left,same,valid,anti,1,1.169405856377125,0,f,1,same,2.891260658047031,1,0,0,0,0.38745705349083437,0,0,6.779255906027174
4,22,female,46,165,165,left,same,valid,anti,3,0.7613594959584589,1,f,1,same,2.258495646974552,1,0,0,0,0.38746378894029476,0,0,5.912316956141694
4,22,female,47,135,85,right,change,valid,anti,3,0.6414601556462003,1,f,0,same,0.9699371229744429,1,0,0,0,0.38749041000301077,0,0,4.262660399918786
4,22,female,48,105,155,right,change,valid,clock,1,0.7774873694270354,0,f,0,same,0.4299689656145347,1,0,0,0,0.3874499973053389,0,0,4.274690874941371
4,22,female,49,135,135,right,same,valid,clock,1,0.993462765152799,0,f,1,same,0.5757693166287936,1,0,0,0,0.3874679585042031,0,0,4.367157050155583
4,22,female,50,15,15,left,same,valid,clock,4,0.857484944666794,1,f,1,same,1.0775317592469946,1,0,0,0,0.387385208696287,0,0,4.661904490042616
4,22,female,51,165,165,right,same,valid,anti,2,1.0494984976739943,1,f,1,same,0.7040539708359574,1,0,0,0,0.3875128615009089,0,0,4.996531564240286
4,22,female,52,165,165,left,same,valid,clock,1,1.569543195399092,0,f,1,same,1.023365274331809,1,0,0,0,0.38751446517926524,0,0,5.6670218279887195
4,22,female,53,45,95,left,change,valid,clock,3,1.8734181315739988,1,f,0,same,0.6034205819942144,1,0,0,0,0.3875080504658399,0,0,5.810837466547127
4,22,female,54,15,15,right,same,valid,anti,2,0.8094294368638657,1,f,1,same,0.3650507788734103,1,0,0,0,0.38744871436301764,0,0,4.022793402595198
4,22,female,55,45,45,right,same,valid,anti,1,1.2733819525874424,0,f,1,same,5.086706724416217,1,0,0,0,0.3875770086397097,0,0,9.083963792789291
4,22,female,56,105,105,left,same,valid,clock,2,1.8094512468924222,1,f,1,same,0.6054017663554987,1,0,0,0,0.38752408725031273,0,0,6.036459308904341
4,22,female,57,165,165,right,same,valid,clock,1,0.8973584849991312,0,j,0,change,3.1018332610601647,1,0,0,0,0.3874102260797372,0,0,6.6617470088185655
4,22,female,58,15,325,right,change,valid,anti,2,1.249444485783897,1,f,0,same,1.3223983845182374,1,0,0,0,0.3874346019929362,0,0,5.806642564448339
4,22,female,1,135,135,left,same,catch,anti,1,1.4322731308166112,0,f,1,same,1.0334892964074243,0,0,0,0,0.3874567327557088,0,0,7.145873158014183
4,22,female,2,105,105,left,same,valid,clock,4,0.8004283104401111,1,f,1,same,0.9599846944929595,1,0,0,0,0.3874092638725415,0,0,4.842127478324983
4,22,female,3,75,75,right,same,valid,clock,2,2.3534455993776646,1,f,1,same,0.811817314082873,1,0,0,0,0.3874798257247676,0,0,6.181285585625119
4,22,female,4,135,85,left,change,valid,anti,3,0.7213778676978109,1,f,0,same,1.4782967780174658,1,0,0,0,0.38751927621524374,0,0,5.250154273867338
4,22,female,5,15,15,left,same,valid,anti,3,0.889355488045112,1,f,1,same,1.7016510190405825,1,0,0,0,0.38750676752260915,0,0,5.7915218010457465
4,22,female,6,75,25,left,change,valid,anti,3,0.49713743396023347,1,f,0,same,1.776056567512569,1,0,0,0,0.3874698829185945,0,0,5.35461949200544
4,22,female,7,15,325,left,change,valid,anti,3,1.5292318508509197,1,f,0,same,3.743740842995976,1,0,0,0,0.38743620567129256,0,0,8.090052639141504
4,22,female,8,75,75,right,same,valid,anti,1,3.969479112409317,0,f,1,same,0.49664767056128767,1,0,0,0,0.3874682792402382,0,0,7.712800433121629
4,22,female,9,135,135,left,same,valid,anti,1,0.5294541206840222,0,f,1,same,1.3429694095120794,1,0,0,0,0.3875045223740017,0,0,4.781012896140055
4,22,female,10,15,325,right,change,valid,anti,1,0.3694554421144858,0,f,0,same,0.49452407955322997,1,0,0,0,0.3874949003029542,0,0,3.9422332569547507
4,22,female,11,45,355,right,same,catch,anti,1,0.2414790149050532,0,f,1,same,0.9180542761769175,0,0,0,0,0.38747725983921555,0,0,5.75284203895535
4,22,female,12,165,165,right,same,valid,clock,1,0.18399034970570938,0,f,1,same,1.6241603139624203,1,0,0,0,0.38742947022092267,0,0,4.747725983952478
4,22,female,13,105,105,right,same,valid,anti,1,0.3374123429366591,0,f,1,same,0.8691462529077398,1,0,0,0,0.3874955417741148,0,0,4.132235476446112
4,22,female,14,165,115,left,change,valid,anti,1,2.361452124425341,0,f,0,same,0.7920821262978279,1,0,0,0,0.3874977869236318,0,0,6.380792165839011
4,22,female,15,105,85,right,same,catch,anti,1,0.2974910129869386,0,f,1,same,0.7700883177803917,0,0,0,0,0.38741728226523264,0,0,5.737304319154646
4,22,female,16,165,115,right,change,valid,anti,1,0.31234139620210044,0,f,0,same,0.6104482217124314,1,0,0,0,0.3874775805761601,0,0,3.993214194992106
4,22,female,17,45,125,left,change,catch,clock,1,1.0094225731227198,0,f,0,same,1.722775633837955,0,0,0,0,0.3874442240630742,0,0,7.4532396229169535
4,22,female,18,105,155,right,change,valid,clock,1,0.48818890818984073,0,f,0,same,0.7152806822177808,1,0,0,0,0.3874779013112857,0,0,4.243921096454869
4,22,female,19,75,125,right,change,valid,clock,1,0.2574359362533869,0,f,0,same,2.2698657272103446,1,0,0,0,0.3875423691843025,0,0,5.639230080389098
4,22,female,20,75,125,left,same,catch,clock,1,0.3055090845173254,0,f,1,same,0.5908329890771711,0,0,0,0,0.38753819962221314,0,0,5.503513659490636
4,22,female,21,45,45,right,same,valid,anti,1,0.4402677886428137,0,f,1,same,0.47110363868341665,1,0,0,0,0.38745737422686943,0,0,3.8902891496400116
4,22,female,22,165,135,right,change,catch,anti,1,0.9853327568653185,0,f,0,same,2.1379471376258152,0,0,0,0,0.3874621852628479,0,0,7.640416802443724
4,22,female,23,45,95,right,change,valid,clock,1,1.024100400534735,0,f,0,same,0.6539951479117008,1,0,0,0,0.387438450821719,0,0,5.318937646416089
4,22,female,24,75,25,right,change,valid,anti,1,0.23347826310055098,0,f,0,same,0.15865928632410942,1,0,0,0,0.38745705349174386,0,0,3.53406277182512
4,22,female,25,105,105,right,same,valid,clock,1,0.28946460232691607,0,f,1,same,0.5825596119357215,1,0,0,0,0.38749810765875736,0,0,3.7751148875249783
4,22,female,26,105,105,left,same,valid,anti,1,0.24153867174391053,0,f,1,same,1.0241241349758639,1,0,0,0,0.38745705349174386,0,0,4.470817863182674
4,22,female,27,15,65,left,change,valid,clock,1,0.2574644817286753,0,f,0,same,0.7720367871006601,1,0,0,0,0.3874445448000188,0,0,4.06388894590782
4,22,female,28,135,185,right,change,valid,clock,1,0.4253920673090761,0,j,1,change,3.6885098363218276,1,0,0,0,0.38749522103717027,0,0,7.350737948676397
4,22,female,29,75,75,left,same,valid,clock,1,1.5054069622747193,0,f,1,same,1.244330996667486,1,0,0,0,0.38749361735972343,0,0,5.4339399942000455
4,22,female,30,105,155,left,change,valid,clock,1,1.3853478955879837,0,j,1,change,1.5613820757498615,1,0,0,0,0.3874923344155832,0,0,6.252134496022336
4,22,female,31,105,55,left,change,valid,anti,2,0.8734110753885034,1,j,1,change,1.3957201670891664,1,0,0,0,0.3874493558341783,0,0,5.610793654052031
4,22,female,32,75,125,left,change,valid,clock,1,0.5534573383047245,0,f,0,same,1.3718176604779728,1,0,0,0,0.3875263323989202,0,0,4.929212991592067
4,22,female,33,45,95,left,change,valid,clock,1,0.6254118246270082,0,j,1,change,1.2031052346628712,1,0,0,0,0.38745063877649955,0,0,4.878534828047123
4,22,female,34,45,45,left,same,valid,clock,2,0.4334717200927116,1,f,1,same,0.6354184574411192,1,0,0,0,0.3874923344155832,0,0,4.233797715849505
4,22,female,35,45,355,left,change,valid,anti,1,0.9531559109018417,0,f,0,same,6.318734620723262,1,0,0,0,0.38750869193791004,0,0,10.445212891521805
4,22,female,36,135,135,right,same,valid,clock,3,1.8254832203929254,1,f,1,same,0.8175559170595079,1,0,0,0,0.38744678994771675,0,0,5.439367483559181
4,22,female,37,135,85,right,change,valid,anti,1,0.7134691670362372,0,f,0,same,0.7664473262193496,1,0,0,0,0.3875462180130853,0,0,4.361490612707712
4,22,female,38,45,125,left,same,catch,clock,1,0.5534085864783265,0,f,1,same,1.5332019172310538,0,0,0,0,0.3875661036272504,0,0,6.70440261053227
4,22,female,39,105,55,right,change,valid,anti,1,0.448082834482193,0,f,0,same,0.14353467409273435,1,0,0,0,0.3874910514750809,0,0,4.042466046919799
4,22,female,40,15,65,right,change,valid,clock,1,0.6653655488807999,0,f,0,same,3.45112244662414,1,0,0,0,0.38750869193609105,0,0,6.928563181081699
4,22,female,41,165,165,right,same,valid,anti,1,0.5374596835226839,0,f,1,same,1.1481096479856205,1,0,0,0,0.3874307531659724,0,0,4.560998796599961
4,22,female,42,75,75,left,same,valid,anti,1,0.43348936055554077,0,f,1,same,0.5368692091160483,1,0,0,0,0.38741792373730277,0,0,4.044729157953043
4,22,female,43,15,15,left,same,valid,clock,2,2.617469446719042,1,f,1,same,1.075403677939903,1,0,0,0,0.3874965039813105,0,0,6.70711892109648
4,22,female,44,15,15,right,same,valid,clock,1,0.9134334370810393,0,f,1,same,0.9288983498790913,1,0,0,0,0.3875244079863478,0,0,4.869873681454919
4,22,female,45,45,45,left,same,valid,anti,1,2.0094610614032717,0,f,1,same,0.5605398238258203,1,0,0,0,0.38751638959365664,0,0,5.553385493511087
4,22,female,46,135,135,left,same,valid,clock,1,1.5288989272048639,0,f,1,same,7.7127019672643655,1,0,0,0,0.3874416581766127,0,0,12.60589858593994
4,22,female,47,45,45,right,same,valid,clock,1,2.025508430217087,0,f,1,same,0.4325095130207046,1,0,0,0,0.3875282568151306,0,0,5.536554567404892
4,22,female,48,165,165,left,same,valid,clock,4,0.8813813573015068,1,f,1,same,3.1783768336463254,1,0,0,0,0.38747244880323706,0,0,7.285281246713566
4,22,female,49,15,115,right,change,catch,clock,3,3.953268809866131,1,j,1,change,2.2536945544197806,0,0,0,0,0.38743813008477446,0,0,10.915682435745111
4,22,female,50,135,135,right,same,valid,anti,1,0.5763280381997902,0,f,1,same,0.5520557233357977,1,0,0,0,0.3875433313933172,0,0,4.493844440623434
4,22,female,51,45,355,right,change,valid,anti,2,0.8814602582824591,1,f,0,same,1.5007578984368593,1,0,0,0,0.38742979095695773,0,0,5.175537681310743
4,22,female,52,165,215,left,change,valid,clock,4,0.9294079988922022,1,j,1,change,1.4302162528329063,1,0,0,0,0.3874955417741148,0,0,5.3226453509996645
4,22,female,53,15,15,right,same,valid,anti,1,3.8649975367497973,0,f,1,same,5.141054424997492,1,0,0,0,0.38743331905061495,0,0,12.217207662246437
4,22,female,54,135,185,left,change,valid,clock,4,0.8094826789892977,1,j,1,change,0.8314463383521797,1,0,0,0,0.3875475009554066,0,0,4.913681686504788
4,22,female,55,165,165,left,same,valid,anti,4,1.097400693814052,1,f,1,same,0.8788209242848097,1,0,0,0,0.38745512907735247,0,0,5.069715751202239
4,22,female,56,45,105,right,same,catch,clock,4,1.209402238477196,1,j,0,change,2.769855142933011,0,0,0,0,0.38741247122925415,0,0,8.482091401974685
4,22,female,57,165,215,right,change,valid,clock,2,0.7841227493972838,1,f,0,same,1.4449415491289983,1,0,0,0,0.3874823916103196,0,0,5.567329798399442
4,22,female,58,45,55,left,same,catch,anti,2,0.6174614283245319,1,f,1,same,0.8398258790075488,0,0,0,0,0.3874227347714623,0,0,5.971224876773704
4,22,female,1,165,165,right,same,valid,anti,4,0.5042609736519807,1,f,1,same,1.3863947768841172,1,0,0,0,0.3874397337640403,0,0,4.937130672851708
4,22,female,2,165,165,right,same,valid,clock,4,0.5534743372954836,1,f,1,same,0.804259498267129,1,0,0,0,0.38748784411654924,0,0,4.347522894113354
4,22,female,3,75,75,left,same,valid,clock,4,0.36145661472437496,1,f,1,same,0.7512091735534341,1,0,0,0,0.3875423691843025,0,0,4.257729409409876
4,22,female,4,135,85,right,change,valid,anti,4,0.8014152141622617,1,j,1,change,1.2828151099874958,1,0,0,0,0.38743139463440457,0,0,5.109627138344877
4,22,female,5,45,125,left,change,catch,clock,1,0.6094789584549289,0,f,0,same,0.6778970130526432,0,0,0,0,0.38746090231870767,0,0,6.002393329725237
4,22,female,6,75,75,left,same,valid,anti,4,1.4959859928312653,1,f,1,same,1.6522291771962045,1,0,0,0,0.38744743142160587,0,0,6.303780319145517
4,22,female,7,45,355,left,change,valid,anti,4,1.2734367983903212,1,j,1,change,1.137706906592939,1,0,0,0,0.3875102956153569,0,0,5.560060644704208
4,22,female,8,45,105,right,same,catch,clock,4,0.5374821350214916,1,f,1,same,0.5965228402310458,0,0,0,0,0.3874708451257902,0,0,6.1738490079005715
4,22,female,9,165,165,left,same,valid,anti,4,0.8960649579566962,1,f,1,same,2.7381860215682536,1,0,0,0,0.3874827123454452,0,0,6.84216147630832
4,22,female,10,15,115,right,change,catch,clock,1,0.40942873124731705,0,f,0,same,0.892631161654208,0,0,0,0,0.3874814294031239,0,0,5.674935018949327
4,22,female,11,75,125,left,same,catch,clock,1,1.2242154163541272,0,f,1,same,0.9594821016653441,0,0,0,0,0.3874920136804576,0,0,6.610824123941711
4,22,female,12,105,155,left,change,valid,clock,2,1.5519825955998385,1,f,0,same,2.4417107785156986,1,0,0,0,0.38751799327292247,0,0,7.287844887086976
4,22,female,13,165,165,left,same,valid,clock,4,0.8814653900517442,1,f,1,same,0.8734928629892238,1,0,0,0,0.3874923344155832,0,0,4.961686838803871
4,22,female,14,165,215,right,change,valid,clock,3,1.3373728924452735,1,f,0,same,1.2367064678273891,1,0,0,0,0.38752184209988627,0,0,5.655133118139929
4,22,female,15,15,15,left,same,valid,anti,4,0.7294511057680211,1,f,1,same,1.3762697925994871,1,0,0,0,0.3874538461350312,0,0,5.655243451217757
4,22,female,16,135,85,left,change,valid,anti,1,1.5452173176745418,0,f,0,same,5.500381034000384,1,0,0,0,0.38748880632374494,0,0,10.046147771914548
4,22,female,17,45,45,right,same,valid,anti,4,0.937273720968733,1,f,1,same,1.1769979909113317,1,0,0,0,0.38749041000301077,0,0,5.303343797870184
4,22,female,18,45,45,left,same,valid,anti,4,0.5374346661392337,1,f,1,same,1.2112689201985631,1,0,0,0,0.38748207087519404,0,0,5.037884337578362
4,22,female,19,45,95,right,change,valid,clock,4,0.6094318103096157,1,f,0,same,0.7409950247474626,1,0,0,0,0.38747052439066465,0,0,4.533902083243447
4,22,female,20,135,135,right,same,valid,anti,4,1.2894790354330325,1,f,1,same,0.6126375635376462,1,0,0,0,0.38743909229197016,0,0,5.000600737948844
4,22,female,21,105,105,right,same,valid,clock,3,0.9134629447653424,1,f,1,same,1.0790113129896781,1,0,0,0,0.3874384508199,0,0,5.159711620124654
4,22,female,22,75,75,right,same,valid,anti,3,0.5612871379853459,1,f,1,same,1.4875769444934122,1,0,0,0,0.38753242637903895,0,0,5.506400601443602
4,22,female,23,165,115,right,change,valid,anti,1,2.7451982659749774,0,f,0,same,4.299644432414425,1,0,0,0,0.38748303308057075,0,0,10.19022609300373
4,22,female,24,135,135,right,same,valid,clock,1,0.7291601984961744,0,f,1,same,1.4527982906074612,1,0,0,0,0.38743428125599166,0,0,5.042326847629738
4,22,female,25,105,105,right,same,valid,anti,1,0.817498184635042,0,f,1,same,0.38320057013879705,1,0,0,0,0.38748014646080264,0,0,4.322607824924489
4,22,female,26,135,135,left,same,catch,anti,1,2.9372717965561606,0,f,1,same,3.9359391397611034,0,0,0,0,0.38745160098551423,0,0,11.258945639148806
4,22,female,27,105,105,left,same,valid,clock,4,0.9522873586520291,1,f,1,same,1.1418091160776385,1,0,0,0,0.38745320466296107,0,0,5.687533837613955
4,22,female,28,135,185,left,change,valid,clock,4,0.9454435004827246,1,j,1,change,1.1411823985381488,1,0,0,0,0.38749233441740216,0,0,5.335848435708613
4,22,female,29,45,95,left,change,valid,clock,1,1.3853215952640312,0,f,0,same,7.052475245620371,1,0,0,0,0.38751542738646094,0,0,11.76637900951755
4,22,female,30,15,15,left,same,valid,clock,4,0.8734312817359751,1,f,1,same,0.9402790143922175,1,0,0,0,0.3874984283957019,0,0,5.219622801998412
4,22,female,31,15,65,left,change,valid,clock,4,0.713456016872442,1,j,1,change,0.8422384528748807,1,0,0,0,0.38748752338142367,0,0,4.367627248677309
4,22,female,32,135,135,left,same,valid,anti,1,2.2172333211019577,0,f,1,same,7.437148954786608,1,0,0,0,0.3874509595134441,0,0,12.550633260547329
4,22,female,33,75,25,left,change,valid,anti,1,0.7054979229142191,0,f,0,same,0.7418837833465659,1,0,0,0,0.38745448760528234,0,0,4.359221407696168
4,22,female,34,105,85,right,same,catch,anti,1,1.0654602300564875,0,f,1,same,0.6076995168441499,0,0,0,0,0.387438450821719,0,0,6.252042765612714
4,22,female,35,105,155,right,change,valid,clock,1,1.455758360296386,0,j,1,change,1.1108186714354815,1,0,0,0,0.38752312504402653,0,0,5.708401543122818
4,22,female,36,105,105,left,same,valid,anti,2,1.8014350997746078,1,j,0,change,0.9145098260596569,1,0,0,0,0.3874499973062484,0,0,6.093601900294743
4,22,female,37,15,15,right,same,valid,clock,1,0.7455113040086871,0,f,1,same,0.6354245514176,1,0,0,0,0.38743652640550863,0,0,4.096512576688838
4,22,female,38,75,25,right,change,valid,anti,3,1.0573693515234481,1,f,0,same,1.118740842995976,1,0,0,0,0.38745544981247804,0,0,4.959134103441102
4,22,female,39,45,355,right,change,valid,anti,4,1.1614676480312482,1,j,1,change,1.825715112296166,1,0,0,0,0.38746763776907756,0,0,6.573087966253297
4,22,female,40,165,215,left,change,valid,clock,4,0.7534629832516657,1,j,1,change,1.0560059041017666,1,0,0,0,0.3874567327547993,0,0,5.301062084166915
4,22,female,41,15,15,right,same,valid,anti,4,0.4573613972788735,1,j,0,change,2.82763888496811,1,0,0,0,0.3873986795952078,0,0,6.498930667206878
4,22,female,42,165,115,left,change,valid,anti,1,5.633270169784737,0,j,1,change,2.701211931882426,1,0,0,0,0.38744582774052105,0,0,11.297170598030789
4,22,female,43,75,75,right,same,valid,clock,1,0.7454583826201997,0,f,1,same,0.5870816644383012,1,0,0,0,0.38752697387099033,0,0,4.481166720977853
4,22,female,44,15,65,right,change,valid,clock,1,1.201469482639368,0,f,0,same,0.9908388264666428,1,0,0,0,0.3874775805761601,0,0,5.051182039314881
4,22,female,45,135,185,right,change,valid,clock,1,0.9693460070975561,0,f,0,same,0.5732406364422786,1,0,0,0,0.38743171537134913,0,0,4.611231779004811
4,22,female,46,45,45,left,same,valid,clock,1,0.9694582645879564,0,f,1,same,0.5597290040004737,1,0,0,0,0.3874997113380232,0,0,4.40759989633807
4,22,female,47,75,125,right,change,valid,clock,1,2.161461874789893,0,f,0,same,1.2635443474828207,1,0,0,0,0.3874156785859668,0,0,6.34336006558442
4,22,female,48,45,355,right,same,catch,anti,1,5.913257353187873,0,f,1,same,2.517515696805276,0,0,0,0,0.3874006040095992,0,0,12.646988035276081
4,22,female,49,105,55,right,change,valid,anti,4,0.8882322716563067,1,j,1,change,2.9498972362853237,1,0,0,0,0.387520559157565,0,0,7.067774017330521
4,22,female,50,105,55,left,change,valid,anti,4,0.9294859376641398,1,j,1,change,0.9622407493425271,1,0,0,0,0.38753242637721996,0,0,5.071585640278499
4,22,female,51,75,125,left,change,valid,clock,1,0.4734668192504614,0,j,1,change,0.3633970656537713,1,0,0,0,0.3874474314197869,0,0,3.624285400879671
4,22,female,52,135,135,left,same,valid,clock,3,2.497369325865293,1,j,0,change,1.684416607437015,1,0,0,0,0.38748976853094064,0,0,7.043802552543639
4,22,female,53,45,55,left,same,catch,anti,1,0.41747085795395833,0,j,0,change,0.4383318280142703,0,0,0,0,0.387510937085608,0,0,5.378394666551685
4,22,female,54,45,125,left,same,catch,clock,1,0.20824021307089424,0,j,0,change,0.9192647326726728,0,0,0,0,0.3875022772226657,0,0,5.7061188672123535
4,22,female,55,45,45,right,same,valid,clock,1,0.2241403642019577,0,j,0,change,0.9227758262804855,1,0,0,0,0.3875122200297483,0,0,4.064085877624166
4,22,female,56,15,325,left,change,valid,anti,1,0.31343799152818974,0,j,1,change,1.1691726815315633,1,0,0,0,0.38745641201967373,0,0,4.575039322195153
4,22,female,57,165,135,right,change,catch,anti,1,0.4813841797767964,0,j,1,change,0.7216992448593373,0,0,0,0,0.38752120062963513,0,0,5.565452211663796
4,22,female,58,15,325,right,change,valid,anti,4,0.7042569965287839,1,j,1,change,0.9078776534461213,1,0,0,0,0.38748207087337505,0,0,4.664293650203035
