subject,age,gender,ntrial,memory_ori,test_ori,cue,type,trial_type,which_change,pas,pas_rt,vis,test_key,test_acc,test,test_rt,contrast,fix_dur,cue_dur,jitter_dur,target_dur,mask_dur,retention_dur,trial_dur
5,26,female,1,135,185,right,change,valid,clock,3,1.2083269185377503,1,j,0,same,0.823129637897182,0.5,0,0,0,0.38746106218786736,0,0,5.329587092403926
5,26,female,2,105,105,right,same,valid,anti,3,1.0894392570126001,1,j,1,same,0.5051725708453887,0.4069419370673367,0,0,0,0.3874507985137825,0,0,4.513970784452795
5,26,female,3,75,25,left,change,valid,anti,3,1.2974573031169712,1,f,1,change,1.0820856554901184,0.3461892688284379,0,0,0,0.38751783313364285,0,0,5.428922455378597
5,26,female,4,75,105,right,same,catch,clock,2,1.1933361815035823,1,j,1,same,1.283142044113447,0,0,0,0,0.38747004290235054,0,0,7.593541198386447
5,26,female,5,75,75,left,same,valid,clock,2,1.7762438931140423,1,j,1,same,0.9943841667436573,0.2977447647674634,0,0,0,0.3875152672144395,0,0,5.696565710604773
5,26,female,6,45,45,left,same,valid,anti,2,1.3453995648196724,1,j,1,same,0.985183103939562,0.25592670972998877,0,0,0,0.38748447619309445,0,0,5.601299252804893
5,26,female,7,105,45,left,change,catch,clock,1,1.281443085362298,0,f,1,change,1.2408294074775768,0,0,0,0,0.38749730578547315,0,0,6.673254983013976
5,26,female,8,165,215,right,change,valid,clock,3,1.5844661863266083,1,f,1,change,0.8576114121788123,0.21928796852134014,0,0,0,0.38746779772282025,0,0,5.369597779454125
5,26,female,9,165,215,left,change,valid,clock,2,1.5534782307477144,1,f,1,change,1.0350786710596367,0.18534516214727204,0,0,0,0.38744502519693924,0,0,5.505816295634759
5,26,female,10,45,45,right,same,valid,clock,2,1.4014103570734733,1,j,1,same,0.7886934086691326,0.15488367948209586,0,0,0,0.38748896655033604,0,0,5.6775628393424995
5,26,female,11,75,125,left,change,valid,clock,2,1.6414045580968377,1,f,1,change,1.7297026228816321,0.12473050325576701,0,0,0,0.3875143049954204,0,0,6.134303699541306
5,26,female,12,165,115,right,change,valid,anti,1,0.961360154879003,0,f,1,change,1.9719086456052537,0.09631031933527462,0,0,0,0.3874264222886268,0,0,6.250042016914449
5,26,female,13,165,165,right,same,valid,clock,2,1.2174542111852134,1,j,1,same,0.7184860311399461,0.15443811874716074,0,0,0,0.38747934435650677,0,0,4.904941702333417
5,26,female,14,135,15,left,same,catch,anti,1,1.3614689498208463,0,f,0,change,1.2928466684115847,0,0,0,0,0.3875059657602833,0,0,7.328684851330763
5,26,female,15,105,55,right,change,valid,anti,2,1.1444406810969667,1,f,1,change,0.8719170489885073,0.13810278298030004,0,0,0,0.38744117631995323,0,0,5.094831855364646
5,26,female,16,75,75,right,same,valid,anti,2,0.9694097617802981,1,j,1,same,1.688643758147009,0.12382011222810324,0,0,0,0.38742481859026157,0,0,5.640881431474554
5,26,female,17,105,105,left,same,valid,clock,2,0.9133928754708904,1,j,1,same,0.9917412707454787,0.1101979507991962,0,0,0,0.3874350822634369,0,0,4.824093140273362
5,26,female,18,165,165,left,same,valid,clock,2,1.385213959109933,1,j,1,same,0.9663624128870651,0.09782255339102114,0,0,0,0.3875062865008658,0,0,5.522388279910956
5,26,female,19,75,75,right,same,valid,clock,1,0.90551550584496,0,f,0,change,1.0188944612082196,0.08642141584525492,0,0,0,0.38749730578547315,0,0,4.854933876281393
5,26,female,20,135,135,right,same,valid,anti,2,1.1695093835642183,1,j,1,same,0.662586856339658,0.11466805329333657,0,0,0,0.3874819102748006,0,0,5.1384162253289105
5,26,female,21,165,165,right,same,valid,anti,1,1.0014757238459424,0,f,0,change,1.0254975315856427,0.10557631276441115,0,0,0,0.38746491106485337,0,0,4.931568558775325
5,26,female,22,75,25,right,change,catch,clock,1,0.8013953464496808,0,f,1,change,0.8887812272278097,0,0,0,0,0.3875274553274721,0,0,6.766830821298754
5,26,female,23,45,95,left,change,valid,clock,2,1.1041804584783677,1,f,1,change,0.8549242540875639,0.1278101523427584,0,0,0,0.3874629866259056,0,0,5.164768528497007
5,26,female,24,15,15,right,same,valid,clock,3,1.3054559123893341,1,j,1,same,0.6861971549096779,0.12061162409385517,0,0,0,0.3874758162191938,0,0,5.000596576039243
5,26,female,25,45,355,right,change,valid,anti,1,0.9534683519623286,0,f,1,change,1.053388423601973,0.11372282022650093,0,0,0,0.3874697221626775,0,0,5.1435451755605754
5,26,female,26,15,65,right,change,valid,clock,3,0.9774622553395602,1,f,1,change,0.7166433809570663,0.1304926526493459,0,0,0,0.38748736285106133,0,0,5.074096026932239
5,26,female,27,75,125,right,change,valid,clock,2,1.9454290087342088,1,f,1,change,1.8858201573420956,0.1245031283428853,0,0,0,0.3874091023390065,0,0,6.682791218913735
5,26,female,28,75,75,left,same,valid,anti,2,0.7853859397937413,1,j,1,same,1.9050475464682677,0.11867335022808484,0,0,0,0.38751558795411256,0,0,5.4928074098588695
5,26,female,29,15,325,right,change,valid,anti,2,1.7294386540215783,1,f,1,change,0.9017557938441314,0.11337612609135445,0,0,0,0.38749890948474786,0,0,5.384616420851671
5,26,female,30,15,105,right,same,catch,anti,1,1.233430581643006,0,f,0,change,0.8318322710429129,0,0,0,0,0.3874976265251462,0,0,6.43916880920824
5,26,female,31,135,155,right,change,catch,clock,1,1.0644135336797262,0,f,1,change,0.6529550399773143,0,0,0,0,0.3874341200435083,0,0,6.533269057075813
5,26,female,32,15,15,left,same,valid,clock,2,0.9682826821035633,1,j,1,same,2.1105590109928016,0.10813328417609963,0,0,0,0.38747228808097134,0,0,6.1950826097445315
5,26,female,33,165,165,left,same,valid,anti,1,1.1374042912420919,0,f,0,change,1.6299756366051952,0.1033343425258364,0,0,0,0.3874985887450748,0,0,5.751589265737493
5,26,female,34,105,155,right,change,valid,clock,2,1.257494727037738,1,f,1,change,0.990695338239675,0.11561415926005497,0,0,0,0.3874902495099377,0,0,5.51434188040821
5,26,female,35,15,135,left,change,catch,anti,1,0.9934010992392359,0,f,1,change,0.9017278894807532,0,0,0,0,0.3875091731588327,0,0,6.298815315453794
5,26,female,36,105,105,right,same,valid,clock,1,0.6563763714839297,0,f,0,change,0.9674878888645253,0.11134925562088421,0,0,0,0.3875091731579232,0,0,4.798494575647965
5,26,female,37,45,45,left,same,valid,clock,2,1.0974131693201343,1,j,1,same,0.7858266362864015,0.12267419591609985,0,0,0,0.38745496813135105,0,0,5.151958501401168
5,26,female,38,15,65,left,change,valid,clock,1,0.9213116205310143,0,f,1,change,0.9246174857080405,0.11854594827623693,0,0,0,0.38748287249381974,0,0,4.8748678552001365
5,26,female,39,135,85,right,change,valid,anti,2,1.0813646324058936,1,f,1,change,1.4581338331736333,0.12915865924617248,0,0,0,0.38750275836264336,0,0,5.677673494575174
5,26,female,40,105,95,right,same,catch,clock,1,0.7214422899287456,0,f,0,change,1.2593004921427564,0,0,0,0,0.38746106218695786,0,0,6.7825958242247
5,26,female,41,15,15,left,same,valid,anti,1,1.0401402659317682,0,f,0,change,0.8181815849166014,0.12547343849245746,0,0,0,0.3875402849198508,0,0,5.258446362040559
5,26,female,42,135,165,left,change,catch,anti,1,0.8574324393675852,0,f,1,change,0.893753977173219,0,0,0,0,0.3875043620610086,0,0,6.314437589165209
5,26,female,43,45,45,right,same,valid,anti,3,1.1914508729259978,1,j,1,same,0.7315799129637526,0.13552930524626833,0,0,0,0.38741423417650367,0,0,5.209160842032361
5,26,female,44,15,15,right,same,valid,anti,2,1.0255026634240494,1,j,1,same,1.8221093645761357,0.13219573975320242,0,0,0,0.3875213612709558,0,0,6.004725138815957
5,26,female,45,135,135,left,same,valid,clock,2,0.9054484712260091,1,j,1,same,0.9695669242846634,0.12878154021634913,0,0,0,0.38749281542823155,0,0,5.34260720407292
5,26,female,46,105,55,left,change,valid,anti,2,1.6094386668519292,1,f,1,change,0.8289186706488181,0.1256042097683031,0,0,0,0.38744727037556004,0,0,5.350107383686918
5,26,female,47,75,25,right,change,valid,anti,2,1.289382037031828,1,f,1,change,3.210781540269636,0.12260771385315988,0,0,0,0.38749955096409394,0,0,7.309051405610262
5,26,female,48,135,185,left,change,valid,clock,1,1.161451437427786,0,f,1,change,1.407136204082235,0.11951290207822934,0,0,0,0.3874854384130231,0,0,5.967316934547853
5,26,female,49,45,355,left,change,valid,anti,2,1.073368589052734,1,f,1,change,2.2683697308866613,0.1275101764595804,0,0,0,0.3874392518810055,0,0,6.758816175037282
5,26,female,50,45,75,left,same,catch,anti,1,1.1374684392030758,0,f,0,change,0.9044195379292432,0,0,0,0,0.38747228808097134,0,0,6.844980357894201
5,26,female,51,105,105,left,same,valid,anti,1,1.0961610011190714,0,f,0,change,0.8024428826547592,0.12474552387833249,0,0,0,0.38744887407483475,0,0,5.128927458918952
5,26,female,52,105,155,left,change,valid,clock,1,1.0015203066777758,0,f,1,change,1.3193910947229597,0.13203649510746862,0,0,0,0.3875069279802119,0,0,5.314651201875677
5,26,female,53,135,85,left,change,valid,anti,1,0.9610900919624328,0,f,1,change,1.4806151276288801,0.13924062296773088,0,0,0,0.3874703636420236,0,0,5.986403518900261
5,26,female,54,135,135,left,same,valid,anti,2,0.79336787059583,1,f,0,change,1.7700991599185727,0.146477153818172,0,0,0,0.387454647391678,0,0,5.770288396403885
5,26,female,55,45,95,right,change,valid,clock,1,2.48129124713887,0,f,1,change,1.2476162617649607,0.14399416535447196,0,0,0,0.38755343525190256,0,0,6.677227986985599
5,26,female,56,165,115,left,change,valid,anti,2,1.081242751280115,1,f,1,change,1.2205743680142405,0.15064350444214913,0,0,0,0.387496343566454,0,0,5.366462868593771
5,26,female,57,15,325,left,change,valid,anti,1,1.0813880464120302,0,f,1,change,0.918693100758901,0.14814511061383168,0,0,0,0.38742770524731895,0,0,5.631318574170109
5,26,female,58,135,135,right,same,valid,clock,3,1.4574641284598329,1,j,1,same,0.61335522061745,0.1548161646841611,0,0,0,0.3875021168832973,0,0,5.262524247929832
5,26,female,1,75,25,right,change,catch,clock,1,1.1915843006845535,0,f,1,change,1.9423864709388,0,0,0,0,0.3874479118549061,0,0,7.955881918998784
5,26,female,2,45,75,left,same,catch,anti,1,1.0404475346658728,0,f,0,change,0.9529452253391355,0,0,0,0,0.3874273845076459,0,0,6.56460405312464
5,26,female,3,135,135,left,same,valid,clock,1,0.9124219960785922,0,f,0,change,0.8999182754978392,0.15241781424628903,0,0,0,0.38747453325959214,0,0,5.023616713366209
5,26,female,4,45,95,left,change,valid,clock,2,1.225435179768283,1,f,1,change,0.8751424084739483,0.15852588297893777,0,0,0,0.38748287249381974,0,0,5.0789106521542635
5,26,female,5,135,135,right,same,valid,anti,3,1.441444778868572,1,j,1,same,0.8499422026870889,0.1563111402864904,0,0,0,0.38752168201153836,0,0,5.391795219181404
5,26,female,6,135,165,left,change,catch,anti,1,1.1292982341346942,0,f,1,change,1.7585608661511287,0,0,0,0,0.38747100512136967,0,0,7.2661078737774005
5,26,female,7,105,55,left,change,valid,anti,1,0.8643530421531977,0,f,1,change,1.0376712109082291,0.1542044466146259,0,0,0,0.38747838213748764,0,0,4.857790064250366
5,26,female,8,105,95,right,same,catch,clock,1,0.6974698761177933,0,f,0,change,0.8082505183156172,0,0,0,0,0.38742770524822845,0,0,6.376867026408945
5,26,female,9,135,155,right,change,catch,clock,1,0.9282659009968484,0,f,1,change,0.6998965934863008,0,0,0,0,0.38747325029999047,0,0,6.1742390127374165
5,26,female,10,45,45,right,same,valid,clock,3,1.2002173332921302,1,j,1,same,0.6787373885108536,0.1598717682413336,0,0,0,0.3874017253228885,0,0,5.0196202953884494
5,26,female,11,135,135,right,same,valid,clock,3,1.0494943216226602,1,j,1,same,0.7234440270549385,0.15774878471073933,0,0,0,0.3874302711665223,0,0,4.761651194178739
5,26,female,12,135,185,right,change,valid,clock,3,1.2253861065782985,1,f,1,change,1.5060465868155006,0.15574591342309035,0,0,0,0.38750724871897546,0,0,5.778616084716305
5,26,female,13,135,85,left,change,valid,anti,3,1.06545946618553,1,f,1,change,0.9709621424390207,0.1538262774538539,0,0,0,0.3875165501740412,0,0,5.565296851104904
5,26,female,14,75,75,right,same,valid,anti,3,1.1854174364416394,1,j,1,same,0.5070569172030446,0.15182777133194575,0,0,0,0.38745721330997185,0,0,4.627200275065661
5,26,female,15,165,115,right,change,valid,anti,3,0.9774677079167304,1,f,1,change,0.9186870067023847,0.14984965885773954,0,0,0,0.3875008339236956,0,0,4.856527632375219
5,26,female,16,45,355,left,change,valid,anti,2,0.9854230173150427,1,f,1,change,1.0562211975648097,0.14795352239829157,0,0,0,0.3875258516281974,0,0,4.827739951863805
5,26,female,17,105,45,left,change,catch,clock,1,0.7774415355479505,0,f,1,change,1.4923067350227939,0,0,0,0,0.3874674769840567,0,0,7.266082856072899
5,26,female,18,45,45,right,same,valid,anti,4,1.7202594015252544,1,j,1,same,0.6851685423525851,0.1461595646781057,0,0,0,0.3874658732838725,0,0,5.983105672218699
5,26,female,19,135,185,left,change,valid,clock,2,1.5530724948939678,1,j,0,same,2.5504918224178255,0.14443838380731644,0,0,0,0.38753803974032053,0,0,6.983025487267696
5,26,female,20,15,15,left,same,valid,clock,3,1.22544672640106,1,j,1,same,0.5725160626498109,0.14264840050668265,0,0,0,0.38749570208619843,0,0,4.95214209286587
5,26,female,21,15,65,left,change,valid,clock,3,1.1054656628793964,1,f,1,change,0.7275626468990595,0.14088016123245084,0,0,0,0.3875543974709217,0,0,4.902081665485639
5,26,female,22,105,55,right,change,valid,anti,3,1.0894350873950316,1,f,1,change,0.8356837146293401,0.13912800599786768,0,0,0,0.38748896655124554,0,0,5.018562174770523
5,26,female,23,165,165,right,same,valid,anti,4,1.2734563434632946,1,j,1,same,0.7410596986592282,0.13746571310372846,0,0,0,0.3874334785650717,0,0,5.137869363959908
5,26,female,24,15,15,left,same,valid,anti,4,0.977456482022717,1,j,1,same,0.6748240421429728,0.13588111340135217,0,0,0,0.38748223101447365,0,0,4.67599666687147
5,26,female,25,105,105,left,same,valid,clock,4,1.081449949195303,1,j,1,same,0.5249237280740999,0.1343517739021055,0,0,0,0.38743155412521446,0,0,4.218513614763651
5,26,female,26,105,105,right,same,valid,clock,4,1.0014856667794447,1,j,1,same,0.5579756443021324,0.13275405531496648,0,0,0,0.3874498362938539,0,0,4.877214708358224
5,26,female,27,75,25,right,change,valid,anti,3,1.4174511962310135,1,f,1,change,1.384657796286774,0.13117136925165818,0,0,0,0.38750724871988496,0,0,6.040859043836463
5,26,female,28,105,105,right,same,valid,anti,4,1.1214429955552987,1,j,1,same,0.6018117950143278,0.12958800254125763,0,0,0,0.3875175123930603,0,0,4.946748853034478
5,26,female,29,75,75,left,same,valid,anti,1,0.9374730578565504,0,f,0,change,1.920900432101007,0.12806766894172217,0,0,0,0.3875226442305575,0,0,5.960158663567199
5,26,female,30,135,135,left,same,valid,anti,1,0.8894884584988176,0,f,0,change,1.1108034147246144,0.1322799337823305,0,0,0,0.38743155412521446,0,0,4.943494947706313
5,26,female,31,105,155,right,change,valid,clock,3,1.0655495940718538,1,f,1,change,1.0708940814520247,0.1361606873065606,0,0,0,0.3874552888710241,0,0,5.532561825804805
5,26,female,32,15,325,left,change,valid,anti,3,1.0174793571859482,1,f,1,change,0.8824212776216882,0.13479175803633348,0,0,0,0.38747100512136967,0,0,5.249788953207826
5,26,female,33,75,125,right,change,valid,clock,3,0.9533878462707435,1,f,1,change,0.9275429534745854,0.13336304389313025,0,0,0,0.38748672137171525,0,0,4.910735866921641
5,26,female,34,15,325,right,change,valid,anti,3,0.9614409813093516,1,f,1,change,0.787234684032228,0.1319509173327964,0,0,0,0.38746491106485337,0,0,4.779383615070401
5,26,female,35,135,85,right,change,valid,anti,3,1.017402700373168,1,f,1,change,0.748693947512038,0.1305388332868736,0,0,0,0.3874347615237639,0,0,4.547467566791056
5,26,female,36,45,355,right,change,valid,anti,3,0.9294240924355108,1,f,1,change,0.7098626207271082,0.1291324635986324,0,0,0,0.3874668355047106,0,0,4.743566921718411
5,26,female,37,165,165,right,same,valid,clock,4,1.121229703584504,1,j,1,same,0.6240076310414224,0.12779366373395662,0,0,0,0.38747902361683373,0,0,4.5521006532826505
5,26,female,38,105,155,left,change,valid,clock,2,0.9934591531446131,1,f,1,change,0.8051791139369016,0.12651319122548504,0,0,0,0.3875293797655104,0,0,4.875136314417432
5,26,female,39,15,105,right,same,catch,anti,2,1.3615305318635365,1,f,0,change,1.016784634767646,0,0,0,0,0.3874206489717835,0,0,6.8450483547330805
5,26,female,40,165,115,left,change,valid,anti,1,0.8323877923867258,0,f,1,change,0.8399165178434487,0.12527640480808244,0,0,0,0.3874918532092124,0,0,4.532806550277201
5,26,female,41,15,65,right,change,valid,clock,3,1.121434335581398,1,f,1,change,0.6769223219516789,0.12889732689794925,0,0,0,0.38747068438169663,0,0,4.638655176483553
5,26,female,42,75,75,right,same,valid,clock,2,1.4734315182022328,1,j,1,same,0.6156376050739709,0.12763582473586915,0,0,0,0.38740429124209186,0,0,5.061153855036537
5,26,female,43,75,25,left,change,valid,anti,1,0.8094378970754406,0,f,1,change,0.8359797574694312,0.1264265534398728,0,0,0,0.38751622943436814,0,0,4.5655515185108015
5,26,female,44,45,45,left,same,valid,clock,2,0.9454206694990717,1,j,1,same,0.7177749509910427,0.1299386527177912,0,0,0,0.3873978764459025,0,0,4.665172981392061
5,26,female,45,75,105,right,same,catch,clock,1,0.8174689010684233,0,f,0,change,1.0973538324551555,0,0,0,0,0.3874748539992652,0,0,6.439269842247086
5,26,female,46,165,215,right,change,valid,clock,1,0.655625519599198,0,f,1,change,0.6582164557485157,0.12868624315882327,0,0,0,0.3874687599427489,0,0,4.755460274450343
5,26,female,47,45,95,right,change,valid,clock,2,1.1133725405670702,1,f,1,change,0.81871176781533,0.13212192204719508,0,0,0,0.38747774065814156,0,0,4.971841931726885
5,26,female,48,15,15,right,same,valid,anti,3,0.9774417279913905,1,j,1,same,0.768204870626505,0.13090645106728194,0,0,0,0.38744502519693924,0,0,4.914096578604585
5,26,female,49,45,45,left,same,valid,anti,1,0.9214402371935648,0,f,0,change,1.5048441332837683,0.12968020760580373,0,0,0,0.3875409263991969,0,0,5.358576518254267
5,26,female,50,135,15,left,same,catch,anti,1,0.6734211262328245,0,f,0,change,0.9586008303313065,0,0,0,0,0.38741391343592113,0,0,6.283450595806244
5,26,female,51,15,135,left,change,catch,anti,1,0.7924726857982023,0,f,1,change,0.8171346901908692,0,0,0,0,0.3874812687954545,0,0,6.158809503649536
5,26,female,52,75,125,left,change,valid,clock,1,0.736197924685257,0,f,1,change,0.7947727109440166,0.1329410991543042,0,0,0,0.3874831932344023,0,0,4.698799342611892
5,26,female,53,165,165,left,same,valid,clock,2,1.0334008811360036,1,j,1,same,1.5487479600951701,0.13595356901644223,0,0,0,0.3874530436924033,0,0,5.4010860891294215
5,26,female,54,75,75,left,same,valid,clock,2,0.9294526382773256,1,j,1,same,0.6549301556997307,0.13488449031177446,0,0,0,0.38749345690757764,0,0,4.987122296804955
5,26,female,55,165,215,left,change,valid,clock,2,0.8974806529740817,1,f,1,change,0.711557730599452,0.1337639282289363,0,0,0,0.3875127012970552,0,0,4.513103824758218
5,26,female,56,15,15,right,same,valid,clock,2,0.9134214213136147,1,j,1,same,1.0918531447896385,0.1326545009713584,0,0,0,0.3875098146381788,0,0,4.835662866541497
5,26,female,57,165,165,left,same,valid,anti,2,1.0575442492636284,1,j,1,same,0.9998858166291029,0.13154586000460294,0,0,0,0.3875213612709558,0,0,5.237842999148597
5,26,female,58,105,105,left,same,valid,anti,2,1.0174777534866735,1,j,1,same,0.5759101312723942,0.1304280417066473,0,0,0,0.38750115466336865,0,0,5.15454558867259
5,26,female,1,105,155,right,change,valid,clock,2,1.0323450056966976,1,f,1,change,0.7341079841125975,0.12930755907417607,0,0,0,0.38741936601309135,0,0,4.937442266835205
5,26,female,2,105,95,right,same,catch,clock,1,0.8094786310311974,0,f,0,change,1.1358788527259094,0,0,0,0,0.38745047777410946,0,0,6.626629037472412
5,26,female,3,45,95,right,change,valid,clock,2,1.0244159969615794,1,f,1,change,0.6288485569275508,0.12823681171448392,0,0,0,0.38744374223824707,0,0,5.19278932013367
5,26,female,4,135,135,left,same,valid,clock,2,0.9694453638985578,1,j,1,same,0.6390461583068827,0.1272115166825749,0,0,0,0.3875098146381788,0,0,4.812716499368435
5,26,female,5,105,105,left,same,valid,anti,2,0.8894169335226252,1,j,1,same,0.636360283175236,0.1262221803426654,0,0,0,0.38745272295273026,0,0,4.350692092352801
5,26,female,6,15,15,right,same,valid,clock,3,1.9054616215571514,1,j,1,same,0.7418705288873753,0.1252601738550425,0,0,0,0.387496343566454,0,0,5.653022716075611
5,26,female,7,15,325,right,change,valid,anti,3,1.2574350694339955,1,f,1,change,0.7308402869730344,0.12431755883029738,0,0,0,0.38739498978793563,0,0,4.772632683642769
5,26,female,8,165,115,right,change,valid,anti,3,1.3534626427936018,1,f,1,change,1.1451004428772649,0.12332215693536924,0,0,0,0.3875021168823878,0,0,5.325909169052466
5,26,female,9,135,155,right,change,catch,clock,1,0.71343469994099,0,f,1,change,0.98614853075469,0,0,0,0,0.3875438130580733,0,0,6.455205799488795
5,26,female,10,15,15,right,same,valid,anti,2,1.2000338701236615,1,j,1,same,0.7263605141070002,0.12233063721950937,0,0,0,0.38743764818173076,0,0,5.193066118586103
5,26,female,11,135,85,right,change,valid,anti,2,0.7854921046691743,1,f,1,change,0.7636734586521925,0.12133484945820988,0,0,0,0.3874347615237639,0,0,4.5086917279923
5,26,female,12,45,45,right,same,valid,anti,2,0.9294311487101368,1,j,1,same,0.7071238235266719,0.12032683369133129,0,0,0,0.38742610154895374,0,0,4.711484922663658
5,26,female,13,135,185,right,change,valid,clock,2,1.0654174492719903,1,f,1,change,1.5503183021837685,0.11931465158428611,0,0,0,0.3874180830543992,0,0,5.637987075469027
5,26,female,14,45,45,right,same,valid,clock,3,1.1054595688237896,1,j,1,same,0.5884683776212114,0.11834617855668078,0,0,0,0.38748832507098996,0,0,4.990392239123139
5,26,female,15,15,65,right,change,valid,clock,3,1.0174713386913936,1,f,1,change,0.8599730193673167,0.11741768007936965,0,0,0,0.3874825517550562,0,0,5.069101787418731
5,26,female,16,75,25,right,change,valid,anti,3,0.8734245260748139,1,f,1,change,0.7392186521747135,0.11652137632650489,0,0,0,0.387424177110006,0,0,4.6457226781003556
5,26,female,17,165,115,left,change,valid,anti,3,0.9534625786454853,1,f,1,change,1.2039042373580742,0.1156501608152562,0,0,0,0.3874386104016594,0,0,5.235339945705164
5,26,female,18,165,165,right,same,valid,anti,2,0.8974694270818873,1,j,1,same,0.9565673399638399,0.11479747223625208,0,0,0,0.38739531052760867,0,0,5.008209335324864
5,26,female,19,75,125,left,change,valid,clock,1,1.0814608543478244,0,f,1,change,0.9726351212648296,0.11389904012690744,0,0,0,0.38748062731610844,0,0,4.855388364586361
5,26,female,20,45,45,left,same,valid,clock,2,0.8733853958183317,1,j,1,same,0.8606080841827861,0.11621987809638096,0,0,0,0.38753515308235365,0,0,4.810518469481394
5,26,female,21,75,25,right,change,catch,clock,1,1.0654700506001973,0,f,1,change,0.9254408247888932,0,0,0,0,0.38742000749243743,0,0,6.423816919152159
5,26,female,22,105,105,right,same,valid,anti,3,0.9522004675109201,1,j,1,same,0.638779944268208,0.11538583037217609,0,0,0,0.3874540059114224,0,0,4.799933093676373
5,26,female,23,135,135,right,same,valid,clock,3,0.945446007944156,1,j,1,same,0.5832730342499417,0.11456740163014639,0,0,0,0.38750724871988496,0,0,4.361321088770637
5,26,female,24,135,15,left,same,catch,anti,1,0.8972872468721107,0,f,0,change,0.8240206530772411,0,0,0,0,0.38743315782448917,0,0,6.0182427179233855
5,26,female,25,75,75,left,same,valid,clock,2,1.039975084931939,1,j,1,same,2.591627023226465,0.11370285613998254,0,0,0,0.38746619402445504,0,0,7.040724333117396
5,26,female,26,135,85,left,change,valid,anti,1,0.9452789025053789,0,f,1,change,0.822898705237094,0.1128422591772048,0,0,0,0.3875053242809372,0,0,5.027706787367606
5,26,female,27,105,155,left,change,valid,clock,2,1.0413831326777654,1,f,1,change,1.1502941825501694,0.1150863589565006,0,0,0,0.3874729295603174,0,0,5.05039944935379
5,26,female,28,45,45,left,same,valid,anti,2,0.8334305174948895,1,j,1,same,1.5427065051162572,0.11429950827242386,0,0,0,0.3875422093587986,0,0,5.723207000339244
5,26,female,29,15,65,left,change,valid,clock,1,0.7052936821955882,0,f,1,change,1.4013943200825452,0.11346593140140626,0,0,0,0.38747549547861126,0,0,5.1408884877500896
5,26,female,30,75,125,right,change,valid,clock,3,1.0653975634040762,1,f,1,change,0.731060955958128,0.11562924932876223,0,0,0,0.38744951555418083,0,0,4.775266919666137
5,26,female,31,45,95,left,change,valid,clock,1,0.8973594133285587,0,f,1,change,0.6027624677972199,0.1148604838389296,0,0,0,0.38745336443207634,0,0,4.760263673780173
5,26,female,32,75,75,left,same,valid,anti,2,0.7374407914321637,1,j,1,same,0.8700150619406486,0.11696873425019882,0,0,0,0.38748287249381974,0,0,4.329509794110891
5,26,female,33,15,135,left,change,catch,anti,1,0.7694634536228477,0,f,1,change,0.8976352495610627,0,0,0,0,0.3875287382861643,0,0,6.377062356949864
5,26,female,34,165,215,right,change,valid,clock,1,2.3923879463418416,0,f,1,change,0.7496904860872746,0.11619591774775317,0,0,0,0.38749794726481923,0,0,6.337172588806425
5,26,female,35,105,105,left,same,valid,clock,1,0.62673359864948,0,f,0,change,0.9938193439456882,0.11846031686430991,0,0,0,0.3874463081565409,0,0,4.794093384036387
5,26,female,36,105,105,right,same,valid,clock,2,0.8974238820292157,1,j,1,same,1.840192354076862,0.12081341903498088,0,0,0,0.38747004290235054,0,0,6.027682090401868
5,26,female,37,15,105,right,same,catch,anti,1,1.2654686393443626,0,f,0,change,1.6718879899617605,0,0,0,0,0.38753354938398843,0,0,7.531294582833652
5,26,female,38,15,325,left,change,valid,anti,1,0.70435744270344,0,f,1,change,1.360717777195532,0.11996934900280354,0,0,0,0.3874517607337111,0,0,4.916829281747596
5,26,female,39,75,75,right,same,valid,anti,3,1.2253784088225075,1,j,1,same,0.5986643753012686,0.12222010278596157,0,0,0,0.38745945848859265,0,0,4.968989592634898
5,26,female,40,165,165,right,same,valid,clock,3,0.9534968978050529,1,j,1,same,0.4498706135627799,0.1214249591911512,0,0,0,0.3874857591526961,0,0,4.462632529687653
5,26,female,41,105,55,right,change,valid,anti,2,1.033468877974883,1,f,1,change,0.6152517550881385,0.12061788010797586,0,0,0,0.38748223101447365,0,0,4.520264020178729
5,26,female,42,135,135,right,same,valid,anti,3,1.0654710128192164,1,j,1,same,0.5003393427141418,0.11979490426743339,0,0,0,0.38750564502061025,0,0,4.778762021327566
5,26,female,43,165,215,left,change,valid,clock,2,1.8334657988734762,1,f,1,change,1.3617980288618128,0.11899209775718383,0,0,0,0.38739210312996875,0,0,6.476148184356134
5,26,female,44,165,165,left,same,valid,clock,3,0.6893715167661867,1,j,1,same,0.6405693516444444,0.11822371086271344,0,0,0,0.3875431715778177,0,0,4.672689839476334
5,26,female,45,15,15,left,same,valid,anti,1,0.881424418305869,0,f,0,change,0.9681030678120806,0.11748431964549577,0,0,0,0.38742770524731895,0,0,4.775235166424864
5,26,female,46,75,105,right,same,catch,clock,1,0.9774962537594547,0,f,0,change,0.6625255950357314,0,0,0,0,0.38746843920307583,0,0,6.01819460695242
5,26,female,47,135,135,left,same,valid,anti,2,1.1121145990500736,1,j,1,same,1.387446628896214,0.11963160345724172,0,0,0,0.38745945848859265,0,0,5.66453887879652
5,26,female,48,105,45,left,change,catch,clock,1,0.8174262426746282,0,f,1,change,0.8222504900904823,0,0,0,0,0.3874424592786454,0,0,6.673142082601771
5,26,female,49,45,355,right,change,valid,anti,3,1.2082932408575289,1,f,1,change,0.6159387797515592,0.11885787116225249,0,0,0,0.38749666430521756,0,0,5.203350640453209
5,26,female,50,105,55,left,change,valid,anti,1,1.0654479195536624,0,f,1,change,0.7474324778559094,0.11811638664777174,0,0,0,0.38747389177933655,0,0,5.005963835945295
5,26,female,51,45,75,left,same,catch,anti,1,0.8894858925805238,0,f,0,change,0.7445602528969175,0,0,0,0,0.387515267215349,0,0,6.1116976373023135
5,26,female,52,75,25,left,change,valid,anti,1,0.7441189149240017,0,f,1,change,0.5121451334789526,0.12025616621313656,0,0,0,0.3874540059114224,0,0,4.529229339224003
5,26,female,53,135,185,left,change,valid,clock,1,0.6334460413008856,0,f,1,change,0.7780990521496278,0.1223080195737089,0,0,0,0.38747325029999047,0,0,4.339961100677101
5,26,female,54,45,355,left,change,valid,anti,2,1.113434764090016,1,f,1,change,0.8874831932344023,0.1242003088226008,0,0,0,0.38735425583217875,0,0,5.065263814904938
5,26,female,55,135,165,left,change,catch,anti,1,0.9534401268583679,0,f,1,change,0.9710458555282457,0,0,0,0,0.38758230183429987,0,0,6.392470055731792
5,26,female,56,15,15,left,same,valid,clock,1,0.6163810799444036,0,f,0,change,0.765895544025625,0.12350106246209958,0,0,0,0.38749217394888547,0,0,4.420686498649957
5,26,female,57,165,165,left,same,valid,anti,1,0.5454716029807969,0,f,0,change,0.7943612017734267,0.1253187103943757,0,0,0,0.3875030791023164,0,0,4.316666089334831
5,26,female,58,75,75,right,same,valid,clock,2,1.1774961254632217,1,j,1,same,0.4720526577784767,0.12725407527234572,0,0,0,0.3874892872900091,0,0,4.793937825230387
5,26,female,1,75,75,right,same,valid,clock,2,1.0244602590555587,1,j,1,same,0.42316293068961386,0.12658899275319863,0,0,0,0.38742834672757454,0,0,4.856874031365805
5,26,female,2,105,45,left,change,catch,clock,1,0.8094241052649522,0,f,1,change,0.8515433357970323,0,0,0,0,0.3875107768581074,0,0,6.221159076680124
5,26,female,3,45,75,left,same,catch,anti,1,0.7122146057208738,0,f,0,change,0.9308613275043172,0,0,0,0,0.3874264222886268,0,0,6.3770633191697925
5,26,female,4,15,65,right,change,valid,clock,3,1.0803850930406043,1,f,1,change,0.616834606028533,0.1259408247519544,0,0,0,0.3875444545365099,0,0,4.814500774907174
5,26,female,5,45,45,left,same,valid,clock,3,0.6734342765648762,1,j,1,same,0.5681828678762031,0.12530586064728866,0,0,0,0.38745721330997185,0,0,4.361049422155702
5,26,female,6,45,45,right,same,valid,anti,3,0.6014551323496562,1,j,1,same,0.5972832696979822,0.12468060454595448,0,0,0,0.38748672137262474,0,0,3.991386532519755
5,26,female,7,105,105,right,same,valid,anti,3,0.9134634382280638,1,j,1,same,0.7872289107162942,0.12401883693406324,0,0,0,0.3875271345877991,0,0,4.628774466032155
5,26,female,8,135,135,right,same,valid,clock,3,0.5934834652216523,1,j,1,same,0.39993527470778645,0.1233598785910997,0,0,0,0.38745272295273026,0,0,4.025791008509259
5,26,female,9,165,115,left,change,valid,anti,2,1.1130851577008798,1,f,1,change,1.0970247534150985,0.12269997154980233,0,0,0,0.38745721330997185,0,0,5.151178141454693
5,26,female,10,135,135,right,same,valid,anti,3,0.5774461542014251,1,j,1,same,0.5452839701938501,0.12203543013713569,0,0,0,0.38746555254510895,0,0,4.458519683160375
5,26,female,11,105,155,left,change,valid,clock,1,1.1534306971088881,0,f,1,change,0.6745581488439711,0.12136260008384259,0,0,0,0.38748287249381974,0,0,4.715753969476282
5,26,female,12,165,115,right,change,valid,anti,3,0.9535029918606597,1,f,1,change,1.1098578737774005,0.12314350328673712,0,0,0,0.3874803065764354,0,0,5.075451152611095
5,26,female,13,165,215,left,change,valid,clock,3,0.993378647453028,1,f,1,change,0.7722522862331971,0.12249944471256569,0,0,0,0.3874463081565409,0,0,5.132313188308217
5,26,female,14,75,125,right,change,valid,clock,3,0.5854040295189407,1,f,1,change,0.8311404352825775,0.12184958635753579,0,0,0,0.38750404132224503,0,0,4.342650824686643
5,26,female,15,165,165,right,same,valid,anti,3,0.6414905163655931,1,j,1,same,0.4936804636108718,0.12119045135388506,0,0,0,0.3875191160932445,0,0,4.044582191500012
5,26,female,16,15,135,left,change,catch,anti,1,0.7214307432950591,0,f,1,change,0.7105246276851176,0,0,0,0,0.3874835139740753,0,0,5.8620988827988185
5,26,female,17,135,15,left,same,catch,anti,1,0.776056581067678,0,f,0,change,0.7492905235503713,0,0,0,0,0.3875582463479077,0,0,6.26830365848582
5,26,female,18,75,75,left,same,valid,clock,1,0.8803727124841316,0,f,0,change,0.7352167816197834,0.12051854162446263,0,0,0,0.38752456866859575,0,0,4.743335347578977
5,26,female,19,135,155,right,change,catch,clock,1,1.1374370067014752,0,f,1,change,0.6581083664332255,0,0,0,0,0.38755728412979806,0,0,6.2833816367474356
5,26,female,20,75,25,left,change,valid,anti,2,0.8876935985463206,1,f,1,change,0.8876474120152125,0.12230843833684818,0,0,0,0.3875175123939698,0,0,4.767229500877875
5,26,female,21,75,105,right,same,catch,clock,1,0.8494938084386376,0,f,0,change,0.8581104833165227,0,0,0,0,0.3874915324695394,0,0,6.158462142439021
5,26,female,22,105,105,right,same,valid,clock,3,0.656000143691017,1,j,1,same,0.4695630754067679,0.12167214673121851,0,0,0,0.3874726088206444,0,0,4.356157819379405
5,26,female,23,135,185,right,change,valid,clock,3,0.6094245542999488,1,f,1,change,0.6492251567779022,0.1210256891200332,0,0,0,0.3874803065755259,0,0,4.210645225852204
5,26,female,24,165,165,left,same,valid,anti,3,0.5134765244129085,1,j,1,same,0.6440817732554933,0.12036571542153884,0,0,0,0.38747549547861126,0,0,4.1252158578890885
5,26,female,25,45,355,right,change,valid,anti,3,0.47346808254042116,1,f,1,change,0.6390144050665185,0.11969247998337668,0,0,0,0.3874809480557815,0,0,4.0298345752380555
5,26,female,26,45,355,left,change,valid,anti,3,0.47343632930005697,1,f,1,change,0.6431869091966291,0.119040329713269,0,0,0,0.38752168201153836,0,0,4.323639614188323
5,26,female,27,105,95,right,same,catch,clock,1,1.0094534850304626,0,f,0,change,0.9370708501401168,0,0,0,0,0.3875483034144054,0,0,6.423870482700295
5,26,female,28,165,165,left,same,valid,clock,1,0.631957808603147,0,f,0,change,1.478429606593636,0.11841492233052353,0,0,0,0.38748511767244054,0,0,5.324622360953072
5,26,female,29,105,55,left,change,valid,anti,1,0.5934279772354785,0,f,1,change,0.8025519341890686,0.1202188067275608,0,0,0,0.38747934435650677,0,0,4.299733272777303
5,26,female,30,135,85,right,change,valid,anti,3,0.7934522251653107,1,f,1,change,0.8535691284087079,0.12195181136592281,0,0,0,0.3874289882069206,0,0,4.648479436729758
5,26,female,31,15,105,right,same,catch,anti,1,0.641436632078694,0,f,0,change,0.8613990285430191,0,0,0,0,0.387484796933677,0,0,6.127215991316916
5,26,female,32,135,185,left,change,valid,clock,2,0.8715786684942941,1,f,1,change,0.7134988479019739,0.12133971298738566,0,0,0,0.3874809480557815,0,0,4.585980398948777
5,26,female,33,135,165,left,change,catch,anti,1,0.8094324444991798,0,f,1,change,1.3603473227203722,0,0,0,0,0.3874681184634028,0,0,6.642258367460272
5,26,female,34,75,75,left,same,valid,anti,2,1.0082609744340516,1,j,1,same,0.9026920333362796,0.12071591915891788,0,0,0,0.387465873284782,0,0,5.431463035378329
5,26,female,35,105,105,left,same,valid,anti,1,0.8174775610432334,0,f,0,change,1.0497951755605754,0.12007733574977214,0,0,0,0.38743604448245605,0,0,4.9370836797324955
5,26,female,36,135,135,left,same,valid,anti,2,0.9693876307337632,1,j,1,same,1.651529672280958,0.12178481015994125,0,0,0,0.3875021168832973,0,0,5.886295172994323
5,26,female,37,75,125,left,change,valid,clock,2,0.8174397137463529,1,f,1,change,0.7440223722433075,0.12118351275424544,0,0,0,0.38746170366721344,0,0,4.819872525171377
5,26,female,38,15,15,right,same,valid,clock,3,0.8814750951960377,1,j,1,same,0.5436828370848161,0.1205698604749727,0,0,0,0.387484796933677,0,0,4.214567873674241
5,26,female,39,105,55,right,change,valid,anti,1,1.0094461080152541,0,f,1,change,0.8509833240959779,0.11994072514555099,0,0,0,0.38747902361683373,0,0,4.616186711621594
5,26,female,40,165,165,right,same,valid,clock,4,0.9375051318365877,1,j,1,same,0.6171428369825662,0.12162454712239484,0,0,0,0.3874084608596604,0,0,4.510552339604146
5,26,female,41,15,325,right,change,valid,anti,3,0.697440688795723,1,f,1,change,0.6318869251063006,0.12103328669352476,0,0,0,0.38744727037646953,0,0,4.096832309531237
5,26,female,42,15,15,left,same,valid,clock,3,0.953455843109623,1,j,1,same,0.7383981997518276,0.12042907144259712,0,0,0,0.3874947398671793,0,0,4.800631985713153
5,26,female,43,75,25,right,change,valid,anti,3,0.7134847353518126,1,j,0,same,0.49766469347559905,0.11981004446678056,0,0,0,0.38742770524731895,0,0,4.074007823485772
5,26,female,44,135,85,left,change,valid,anti,1,0.7774671947327079,0,f,1,change,0.7818680656055221,0.11920523532423899,0,0,0,0.38753739826097444,0,0,4.385214600589279
5,26,female,45,15,15,right,same,valid,anti,4,1.0974577521528772,1,j,1,same,0.5756156921306683,0.1208885714389083,0,0,0,0.38747902361683373,0,0,4.7595089730166364
5,26,female,46,105,105,left,same,valid,clock,3,0.8014569284932804,1,j,1,same,0.5079767989655011,0.12029314640249489,0,0,0,0.38743764818173076,0,0,4.385373366792919
5,26,female,47,105,155,right,change,valid,clock,3,0.6414270098839552,1,f,1,change,0.9488875460583586,0.11968561158443641,0,0,0,0.38749890948474786,0,0,4.5764762370290555
5,26,female,48,45,45,right,same,valid,clock,3,0.6974365191781544,1,j,1,same,0.44803630261412764,0.1190977660505646,0,0,0,0.3875127012961457,0,0,4.228212145005273
5,26,female,49,45,45,left,same,valid,anti,3,0.5854893463065309,1,j,1,same,0.40336430396837386,0.11853368489566463,0,0,0,0.3874540059114224,0,0,3.647493803307043
5,26,female,50,15,15,left,same,valid,anti,3,0.5215068869256356,1,j,1,same,0.4354360393508614,0.11799039914708559,0,0,0,0.3875104561175249,0,0,3.7639948399382774
5,26,female,51,15,325,left,change,valid,anti,3,0.5614293705284581,1,f,1,change,0.946842829797788,0.11746516201469032,0,0,0,0.3874937776481602,0,0,4.507105669653356
5,26,female,52,45,95,right,change,valid,clock,3,0.48146091849594086,1,f,1,change,0.6327327159733613,0.11695541937655546,0,0,0,0.38752905902583734,0,0,4.277640714967674
5,26,female,53,135,135,left,same,valid,clock,1,0.8014957380091801,0,f,0,change,0.8651571368454825,0.11645878340875604,0,0,0,0.387530341985439,0,0,4.769777137154051
5,26,female,54,15,65,left,change,valid,clock,2,0.9534234483890032,1,f,1,change,0.7889618678855186,0.11791692012862853,0,0,0,0.3875197575725906,0,0,4.762817083371374
5,26,female,55,165,215,right,change,valid,clock,2,0.8974488997337176,1,f,1,change,0.6345452166142422,0.11740491849492074,0,0,0,0.3874424592786454,0,0,4.435653500939225
5,26,female,56,45,95,left,change,valid,clock,2,0.8893662566324565,1,f,1,change,0.8944721135985674,0.11690772418629736,0,0,0,0.3874135926971576,0,0,4.419889460234117
5,26,female,57,75,75,right,same,valid,anti,4,0.8813859295296425,1,j,1,same,0.5403471431063736,0.11642306275303616,0,0,0,0.38747325030089996,0,0,4.404042989397567
5,26,female,58,75,25,right,change,catch,clock,1,0.7374638846986272,0,f,1,change,0.6521352290337745,0,0,0,0,0.38744149705962627,0,0,5.8152974925851595
5,26,female,1,165,165,left,same,valid,anti,2,1.4000667780273943,1,j,1,same,1.1675028353392918,0.11594879293479543,0,0,0,0.38748607989236916,0,0,5.881535073539453
5,26,female,2,45,355,right,change,valid,anti,3,0.9774920841418862,1,f,1,change,0.6166748776058739,0.11548288680527269,0,0,0,0.3874530436924033,0,0,4.985950634295477
5,26,female,3,105,105,left,same,valid,clock,1,0.7533741827546692,0,f,0,change,1.2791478713143078,0.1150234117028312,0,0,0,0.3874289882069206,0,0,4.720061184325459
5,26,female,4,45,45,left,same,valid,anti,1,0.7534017663783743,0,f,0,change,0.6393726714295553,0.11638886730820203,0,0,0,0.3875402849198508,0,0,4.687724517863899
5,26,female,5,135,165,left,change,catch,anti,1,0.8014752106619198,0,f,1,change,1.0015270422145477,0,0,0,0,0.3874918532092124,0,0,6.143020445238108
5,26,female,6,105,105,left,same,valid,anti,2,1.1123237214023902,1,j,1,same,1.630311130440532,0.11777942991489654,0,0,0,0.38751783313273336,0,0,6.401921616323307
5,26,female,7,165,115,right,change,valid,anti,2,1.0094547679891548,1,f,1,change,0.720056052487962,0.11729211400323236,0,0,0,0.38745560961069714,0,0,5.229179816999022
5,26,female,8,75,125,left,change,valid,clock,1,0.9055029969931638,0,f,1,change,0.7322428821416906,0.11681836154172515,0,0,0,0.38749890948474786,0,0,4.77031918742523
5,26,female,9,15,15,left,same,valid,clock,1,0.9934261169437377,0,f,0,change,0.7607223317017997,0.1182059140554182,0,0,0,0.3874751747389382,0,0,4.547083641243262
5,26,female,10,45,355,left,change,valid,anti,1,0.9854259039730096,0,f,1,change,0.9129531411972494,0.1196794137942685,0,0,0,0.3875149464747665,0,0,4.718437278689635
5,26,female,11,135,185,right,change,valid,clock,2,1.2014810481268796,1,f,1,change,0.6784323649553698,0.12117685898269193,0,0,0,0.3874976265260557,0,0,4.781829256088713
5,26,female,12,75,25,right,change,catch,clock,2,1.1854302660340181,1,j,0,same,0.6706255580866127,0,0,0,0,0.38748158953512757,0,0,6.2990500969917775
5,26,female,13,165,165,right,same,valid,anti,2,0.9044740636963979,1,j,1,same,0.8265817604260519,0.12065278124191442,0,0,0,0.38752456866950524,0,0,4.871177743736553
5,26,female,14,15,105,right,same,catch,anti,1,1.7211337382350393,0,f,0,change,1.178694730116149,0,0,0,0,0.38744117631995323,0,0,7.421889272921362
5,26,female,15,75,25,right,change,valid,anti,2,2.1042744352416776,1,f,1,change,0.9194596688939782,0.12011502174420408,0,0,0,0.38744887407483475,0,0,5.9272565328283235
5,26,female,16,105,95,right,same,catch,clock,1,0.7535217230661146,0,f,0,change,0.4996577706269818,0,0,0,0,0.38738312241457606,0,0,6.127115279017744
5,26,female,17,45,75,left,same,catch,anti,1,0.7203864144876206,0,f,0,change,0.721085306524401,0,0,0,0,0.38745272295273026,0,0,6.174361856082214
5,26,female,18,165,165,right,same,valid,clock,3,1.0002030282967098,1,j,1,same,0.45837567098806176,0.11957101687618488,0,0,0,0.38750949389850575,0,0,4.678800574251909
5,26,female,19,75,75,right,same,valid,clock,3,0.905466111914393,1,j,1,same,0.545691630487454,0.11904830895932944,0,0,0,0.38744278001831844,0,0,4.5493416494755365
5,26,female,20,105,55,left,change,valid,anti,1,0.7694926409458276,0,f,1,change,0.43328644117355,0.11854612275724757,0,0,0,0.38752841754740075,0,0,4.104575930658029
5,26,female,21,75,75,right,same,valid,anti,3,0.9774818204678013,1,j,1,same,0.37770255360192095,0.11999903674094764,0,0,0,0.3874463081565409,0,0,4.112441112171837
5,26,female,22,75,75,left,same,valid,anti,3,0.9374528512480538,1,j,1,same,0.45016376974490413,0.11946712447916086,0,0,0,0.38741487565584976,0,0,4.056636876353878
5,26,female,23,45,45,left,same,valid,clock,3,0.9051280521598528,1,j,1,same,0.4230330310683712,0.11895732634434891,0,0,0,0.38744374223824707,0,0,4.239434830803475
5,26,female,24,165,215,left,change,valid,clock,1,0.8974620500666788,0,f,1,change,0.49533965062437346,0.118467201511956,0,0,0,0.38747838213657815,0,0,4.170732043702628
5,26,female,25,15,15,left,same,valid,anti,3,0.8014694373450766,1,j,1,same,0.632355525962339,0.11988612983840446,0,0,0,0.38745432665200497,0,0,4.292074647699337
5,26,female,26,135,135,left,same,valid,anti,1,1.4574545062660036,0,f,0,change,0.3249447044572662,0.1193674617826263,0,0,0,0.3875181538733159,0,0,4.63308681271883
5,26,female,27,105,155,right,change,valid,clock,2,1.3534597561347255,1,f,1,change,0.837878537117831,0.12080447859105536,0,0,0,0.3875120598167996,0,0,5.2466004788002465
5,26,female,28,75,125,right,change,valid,clock,2,1.1294614906955758,1,f,1,change,0.628505686076096,0.12029758148232361,0,0,0,0.38742000749243743,0,0,4.7637716050339804
5,26,female,29,45,95,right,change,valid,clock,2,1.1534473755791623,1,f,1,change,0.8454370913768798,0.11977779292625668,0,0,0,0.3874729295603174,0,0,5.116338742289372
5,26,female,30,105,105,right,same,valid,clock,3,1.1054977368594336,1,j,1,same,0.46507143517010263,0.11927177580754655,0,0,0,0.3875062865008658,0,0,4.758343725303348
5,26,female,31,105,155,left,change,valid,clock,2,1.1294268507972447,1,f,1,change,0.9155027019123736,0.11878610798859318,0,0,0,0.3874597792282657,0,0,5.166516881177813
5,26,female,32,15,135,left,change,catch,anti,2,1.0893642038981852,1,j,0,same,1.5591979837008694,0,0,0,0,0.38746266588714207,0,0,7.0793003510179915
5,26,female,33,165,165,left,same,valid,clock,2,1.1363452084042365,1,j,1,same,0.8975730260390264,0.11831856727571449,0,0,0,0.3875168709146237,0,0,4.8460365540740895
5,26,female,34,135,85,left,change,valid,anti,2,0.8894595919164203,1,f,1,change,0.6389438423093452,0.11786709021417391,0,0,0,0.38750404132133554,0,0,4.553340954111263
5,26,female,35,135,185,left,change,valid,clock,1,1.2494592326875136,0,f,1,change,0.6148835457915993,0.1174297532302837,0,0,0,0.3874812687954545,0,0,4.668977917705888
5,26,female,36,15,65,left,change,valid,clock,2,0.7454358725663042,1,f,1,change,0.7063344828648042,0.11870545742424488,0,0,0,0.38740589494136657,0,0,4.443393593928704
5,26,female,37,45,45,right,same,valid,clock,3,1.0814345536846304,1,j,1,same,0.42618975223467714,0.11824850310505441,0,0,0,0.3874139134368306,0,0,4.523983318964383
5,26,female,38,135,15,left,same,catch,anti,1,1.1454413892906814,0,f,0,change,0.36003428067033383,0,0,0,0,0.3875332286434059,0,0,6.267721194999467
5,26,female,39,105,45,left,change,catch,clock,1,0.8244334452074327,0,f,1,change,0.3750878827067936,0,0,0,0,0.3875069279802119,0,0,5.753340184335684
5,26,female,40,15,325,right,change,valid,anti,2,1.096146567827418,1,f,1,change,0.5631947224183023,0.11780699612805434,0,0,0,0.38755343525190256,0,0,4.999213866735772
5,26,female,41,75,25,left,change,valid,anti,2,1.0414524124762465,1,f,1,change,0.9012945700033015,0.11737909401018443,0,0,0,0.38755343525099306,0,0,4.9189849739814235
5,26,female,42,105,55,right,change,valid,anti,3,1.1374366859618021,1,f,1,change,0.603725007954381,0.11696307011019202,0,0,0,0.38747998583585286,0,0,4.907471056440045
5,26,female,43,15,15,right,same,valid,clock,3,1.0494269662631268,1,j,1,same,0.4380558420825764,0.11655729925664615,0,0,0,0.38743379930474475,0,0,4.43205512106033
5,26,female,44,135,85,right,change,valid,anti,3,0.9054952992373728,1,f,1,change,0.6255798975689686,0.11616024468937147,0,0,0,0.3874424592786454,0,0,4.728454945037811
5,26,female,45,75,75,left,same,valid,clock,3,0.9615022426123687,1,j,1,same,0.4545300007184778,0.11577044614074122,0,0,0,0.3875566426495425,0,0,4.088343289096883
5,26,female,46,45,95,left,change,valid,clock,2,3.4734629507038335,1,f,1,change,1.8994910500769038,0.11538650890328661,0,0,0,0.3873744624397659,0,0,8.176135867947778
5,26,female,47,15,15,right,same,valid,anti,2,2.465478774723124,1,j,1,same,1.1428754708458655,0.11500709374725543,0,0,0,0.3874780613969051,0,0,6.9282136204083145
5,26,female,48,45,45,right,same,valid,anti,2,1.7454230429739255,1,j,1,same,0.4548084028692756,0.11463090756646072,0,0,0,0.38747389178024605,0,0,5.016691299484592
5,26,female,49,15,325,left,change,valid,anti,1,1.4494122763799169,0,f,1,change,1.3606375922445295,0.11423069674092345,0,0,0,0.3875001924443495,0,0,5.695719278258366
5,26,female,50,165,115,left,change,valid,anti,2,1.417130135685511,1,f,1,change,0.9021923207192231,0.11527016689994363,0,0,0,0.38743989336035156,0,0,5.720934238076552
5,26,female,51,135,135,right,same,valid,clock,3,1.1373055033818673,1,j,1,same,0.6421486744466165,0.11489850439538302,0,0,0,0.3874302711665223,0,0,4.7779114193635905
5,26,female,52,75,105,right,same,catch,clock,1,1.2974207387787828,0,f,0,change,0.8178794480190845,0,0,0,0,0.387499871703767,0,0,6.657677612874977
5,26,female,53,135,135,left,same,valid,clock,2,1.6163262334375759,1,j,1,same,1.3206092645050376,0.11450409496370134,0,0,0,0.3875524730328834,0,0,6.316543566729706
5,26,female,54,105,105,right,same,valid,anti,2,1.1614600974025961,1,j,1,same,0.8969867136738685,0.11411115067079897,0,0,0,0.387537719001557,0,0,5.437224805246842
5,26,female,55,15,65,right,change,valid,clock,2,1.4414675513953625,1,f,1,change,0.7337118704517707,0.11371823237948869,0,0,0,0.38745721330997185,0,0,5.246943028912938
5,26,female,56,165,215,right,change,valid,clock,2,1.3054767604762674,1,f,1,change,0.8202346404123091,0.1133239205809286,0,0,0,0.38753579456169973,0,0,5.0759806940295675
5,26,female,57,135,135,right,same,valid,anti,3,1.385440080672197,1,j,1,same,0.6790930889555966,0.11292680575001918,0,0,0,0.3874334785641622,0,0,5.1971571548065185
5,26,female,58,135,155,right,change,catch,clock,1,0.9695091911198688,0,f,1,change,0.5485664213656491,0,0,0,0,0.3874620244068865,0,0,6.080524294115094
5,26,female,1,135,135,right,same,valid,clock,3,1.3041347851294631,1,j,1,same,0.5387902720904094,0.11252547899106102,0,0,0,0.38749345690757764,0,0,5.433557787048812
5,26,female,2,15,65,right,change,valid,clock,3,1.3374481042992556,1,f,1,change,0.7117966817540946,0.11211852287455837,0,0,0,0.38745176073280163,0,0,4.934723676242356
5,26,female,3,105,45,left,change,catch,clock,1,0.9374666430603611,0,f,1,change,0.5813518028144244,0,0,0,0,0.38738889573050983,0,0,5.986832989500726
5,26,female,4,135,185,left,change,valid,clock,1,0.9043595595858278,0,f,1,change,0.42828257946712256,0.1117045023711486,0,0,0,0.3874536851726589,0,0,4.452185392739921
5,26,female,5,105,105,right,same,valid,anti,2,1.08948031170803,1,j,1,same,0.5427385790972039,0.11280341567375524,0,0,0,0.3875319456847137,0,0,4.476582466052605
5,26,female,6,45,95,right,change,valid,clock,2,1.8975098402970616,1,f,1,change,0.6425431844072591,0.1124069372911069,0,0,0,0.38744053483969765,0,0,5.694385642146699
5,26,female,7,15,65,left,change,valid,clock,1,0.8255194701896471,0,f,1,change,1.096600735391803,0.11200444716012847,0,0,0,0.38749217394888547,0,0,4.607096945531339
5,26,female,8,135,135,right,same,valid,anti,3,1.6093883107014335,1,j,1,same,0.5784532771913291,0.11307047658143393,0,0,0,0.3875143049954204,0,0,5.411859418461063
5,26,female,9,45,45,left,same,valid,anti,1,0.9691008893478283,0,f,0,change,0.7936889311404229,0.11268356827892134,0,0,0,0.38745881700924656,0,0,4.693444591556727
5,26,female,10,135,165,left,change,catch,anti,1,0.705413638882419,0,f,1,change,0.9876200849830639,0,0,0,0,0.3875091731588327,0,0,5.924613957569818
5,26,female,11,105,105,left,same,valid,anti,1,0.816388007923706,0,f,0,change,0.4640678403175116,0.11370286907236532,0,0,0,0.3874969850458001,0,0,4.218902992887706
5,26,female,12,105,55,right,change,valid,anti,3,1.025458722069743,1,f,1,change,0.6581888721248106,0.11467907303191638,0,0,0,0.387465873284782,0,0,4.500973766050265
5,26,female,13,165,165,left,same,valid,clock,2,1.19348821217136,1,j,1,same,1.0154099439605488,0.11431102657600534,0,0,0,0.3874880043313169,0,0,5.239140712401422
5,26,female,14,75,25,left,change,valid,anti,1,0.9774423694716461,0,f,1,change,0.30565060145181633,0.11394351590320462,0,0,0,0.38740589494136657,0,0,4.805151530314106
5,26,female,15,75,75,right,same,valid,clock,2,1.1694834036397879,1,j,1,same,0.4376847461280704,0.11490119294747836,0,0,0,0.38747325029999047,0,0,4.4630187004131585
5,26,female,16,45,45,left,same,valid,clock,2,0.9134506086356851,1,j,1,same,0.7610526937014583,0.11453810709481249,0,0,0,0.38750885241915967,0,0,4.712143401484354
5,26,female,17,75,25,right,change,valid,anti,2,1.249474307458513,1,f,1,change,0.8029474063696398,0.1141762883467391,0,0,0,0.3874312333855414,0,0,5.015864111524934
5,26,female,18,45,95,left,change,valid,clock,1,0.9535729131384869,0,f,1,change,0.2975166399810405,0.11381449790206882,0,0,0,0.387511418336544,0,0,4.319121352546972
5,26,female,19,135,85,left,change,valid,anti,2,0.8494370374937716,1,f,1,change,0.5691710672163026,0.11475851034706713,0,0,0,0.38753675678162836,0,0,4.420533505762251
5,26,female,20,15,15,left,same,valid,clock,3,1.2253995776500233,1,j,1,same,0.7769219370629799,0.11440179196926031,0,0,0,0.3874668355038011,0,0,4.900510361178931
5,26,female,21,165,165,left,same,valid,anti,3,0.8655134787695715,1,j,1,same,0.6080306191051932,0.11404582201838848,0,0,0,0.3874960228258715,0,0,4.657048321376351
5,26,female,22,75,105,right,same,catch,clock,2,1.2332467977339547,1,f,0,change,0.7685621747696132,0,0,0,0,0.38751109759687097,0,0,6.20563302490973
5,26,female,23,165,115,right,change,valid,anti,2,1.44814888228575,1,f,1,change,1.2001608830860278,0.11368940363393559,0,0,0,0.3874880043313169,0,0,5.940494426825353
5,26,female,24,45,75,left,same,catch,anti,1,0.569499825517596,0,f,0,change,0.26060975202926784,0,0,0,0,0.38745945848859265,0,0,5.5967219750382355
5,26,female,25,15,15,left,same,valid,anti,1,0.8244918198515734,0,f,0,change,0.3333063911895806,0.11333135210895134,0,0,0,0.3874812687954545,0,0,4.369953159159195
5,26,female,26,135,185,right,change,valid,clock,2,0.9294375635063261,1,f,1,change,0.6120850909874207,0.11426984933044021,0,0,0,0.38743283708481613,0,0,4.36052533331258
5,26,female,27,135,155,right,change,catch,clock,1,0.9055488627855084,0,f,1,change,1.0790976434609547,0,0,0,0,0.38746491106485337,0,0,6.377039905163656
5,26,female,28,165,215,left,change,valid,clock,1,0.9282607691602607,0,f,1,change,0.34423271340801875,0.11391937462095919,0,0,0,0.38750564502061025,0,0,4.689126150814445
5,26,female,29,75,75,right,same,valid,anti,2,0.8654323315986403,1,j,1,same,0.9766966494244116,0.1148331839211244,0,0,0,0.38749666430703655,0,0,4.639617716640714
5,26,female,30,75,25,right,change,catch,clock,1,1.2414654345138842,0,f,1,change,0.8825142921650695,0,0,0,0,0.3874847969345865,0,0,6.720016280753043
5,26,female,31,135,15,left,same,catch,anti,2,1.0483014902856667,1,f,0,change,0.960013047693792,0,0,0,0,0.3874770991769765,0,0,6.798457049091667
5,26,female,32,45,45,right,same,valid,clock,2,1.5123844053741777,1,j,1,same,1.074454614035858,0.11448713381596115,0,0,0,0.38752905902765633,0,0,5.925281417106817
5,26,female,33,105,155,right,change,valid,clock,2,1.4254174107845756,1,f,1,change,0.9039961613852938,0.11414202126724304,0,0,0,0.38747838213748764,0,0,5.667338937299064
5,26,female,34,105,155,left,change,valid,clock,1,1.0174793571859482,0,f,1,change,0.5280519033985911,0.11379671144638087,0,0,0,0.3875130220367282,0,0,4.290525795178837
5,26,female,35,15,15,right,same,valid,clock,3,1.0174758290486352,1,j,1,same,0.38862695138050185,0.11469818747311061,0,0,0,0.3875258516291069,0,0,4.631323385267024
5,26,female,36,135,85,right,change,valid,anti,3,1.1375027583617339,1,f,1,change,0.7523516642540926,0.11435789328722545,0,0,0,0.38744887407665374,0,0,5.1101757269261725
5,26,female,37,15,135,left,change,catch,anti,1,0.9213991824981349,0,f,1,change,1.1219930643237603,0,0,0,0,0.3874652318063454,0,0,6.735585311656905
5,26,female,38,45,355,left,change,valid,anti,1,0.6880815012682433,0,f,1,change,0.8759593327577022,0.11401806845232482,0,0,0,0.38747838213748764,0,0,5.250604273793215
5,26,female,39,105,95,right,same,catch,clock,1,0.6094672126946534,0,f,0,change,0.4258850494188664,0,0,0,0,0.38744213853897236,0,0,5.721560001436956
5,26,female,40,15,325,right,change,valid,anti,3,1.2244370374937716,1,f,1,change,0.4787529123168497,0.1149034843307668,0,0,0,0.38752232349179394,0,0,4.777032271556891
5,26,female,41,135,135,left,same,valid,anti,1,0.9614769041672844,0,f,0,change,0.8732971923727746,0.11456749895070018,0,0,0,0.38749890948383836,0,0,5.114153541993801
5,26,female,42,75,75,left,same,valid,clock,1,0.5855069869958243,0,f,0,change,0.2996858032875025,0.11543841682339512,0,0,0,0.38747100512227917,0,0,3.7558846132124017
5,26,female,43,165,165,right,same,valid,anti,1,1.0573566164766817,0,f,0,change,1.7745279351547651,0.11637931780512156,0,0,0,0.38743828966289584,0,0,5.59410313452463
5,26,female,44,15,105,right,same,catch,anti,1,0.7694621706632461,0,f,0,change,0.8555612433410715,0,0,0,0,0.38744502519693924,0,0,6.719891512968388
5,26,female,45,135,135,left,same,valid,clock,1,0.5837275225530902,0,f,0,change,0.3443905173917301,0.11734417781270645,0,0,0,0.38745272295273026,0,0,4.235870128604802
5,26,female,46,75,125,left,change,valid,clock,1,0.7613962060331687,0,f,1,change,0.7354230173150427,0.11835707314214833,0,0,0,0.3874491948154173,0,0,4.318888174708263
5,26,female,47,45,355,right,change,valid,anti,2,1.03341563516733,1,f,1,change,0.5970407904060266,0.11944364669231144,0,0,0,0.3874645903251803,0,0,4.547642369983805
5,26,female,48,75,125,right,change,valid,clock,2,1.7134035881808813,1,f,1,change,1.335481969290413,0.11904767128271265,0,0,0,0.38738761277272715,0,0,6.151793641140102
5,26,female,49,105,55,left,change,valid,anti,1,0.9214716696951655,0,f,1,change,0.6240300828285399,0.1186666030832711,0,0,0,0.38755568043052335,0,0,4.916261251551987
5,26,female,50,165,165,right,same,valid,clock,3,1.3614920430882194,1,j,1,same,0.3616257915873575,0.11976988880866551,0,0,0,0.38742995042775874,0,0,4.440640684177197
5,26,female,51,105,105,left,same,valid,clock,3,0.8654592737420899,1,j,1,same,0.42860331927113293,0.1193656965255725,0,0,0,0.3875316249450407,0,0,4.433133769027336
5,26,female,52,15,325,left,change,valid,anti,1,0.7293905430524319,0,f,1,change,0.8791195820631401,0.11897738986373912,0,0,0,0.3874915324704489,0,0,4.505582797057286
5,26,female,53,75,75,left,same,valid,anti,1,0.7454907190731319,0,f,0,change,0.40384124405863986,0.12009763959057745,0,0,0,0.3874434214994835,0,0,4.051657390871696
5,26,female,54,165,215,right,change,valid,clock,2,0.9694674949460023,1,f,1,change,0.4797334139020677,0.12118179592493733,0,0,0,0.38750275836173387,0,0,4.210271563979404
5,26,female,55,105,105,right,same,valid,clock,1,0.9613761918699311,0,f,0,change,1.2167825820324651,0.12080242019866966,0,0,0,0.38741038529769867,0,0,4.941253297205549
5,26,female,56,165,115,left,change,valid,anti,1,0.809498196160348,0,f,1,change,0.5759723547944304,0.12181680544535395,0,0,0,0.3873969142259739,0,0,4.690382167893404
5,26,female,57,45,45,right,same,valid,anti,1,0.9134445145791688,0,f,0,change,0.9279371426946454,0.12275059660886967,0,0,0,0.387518795352662,0,0,4.505261095029709
5,26,female,58,15,15,right,same,valid,anti,3,0.9774914426616306,1,j,1,same,0.5817389357598586,0.12362665610325252,0,0,0,0.3874084608596604,0,0,4.395060029661181
5,26,female,1,165,165,left,same,valid,clock,1,0.7043869507651834,0,f,0,change,0.359501852593894,0.12330425645196802,0,0,0,0.38749217394797597,0,0,3.833483118824006
5,26,female,2,15,15,left,same,valid,clock,2,0.9294333938887576,1,j,1,same,0.508445399822449,0.12415014217179177,0,0,0,0.38747228808097134,0,0,4.162730868512881
5,26,female,3,135,185,right,change,valid,clock,2,0.9134852485349256,1,f,1,change,0.6374613829266309,0.12383485420962526,0,0,0,0.38742000749334693,0,0,4.3564317311738705
5,26,female,4,165,165,right,same,valid,anti,3,1.1214731450963882,1,j,1,same,0.5172048039112269,0.12351830113233947,0,0,0,0.3874100645589351,0,0,4.418718118464312
5,26,female,5,75,105,right,same,catch,clock,1,0.9134852485349256,0,f,0,change,0.543280308629619,0,0,0,0,0.3874408555802802,0,0,6.267865527912363
5,26,female,6,75,125,left,change,valid,clock,2,0.7684912912718573,1,f,1,change,0.6347161709309148,0.12319953390223742,0,0,0,0.38748126879363554,0,0,4.810126846177809
5,26,female,7,45,45,left,same,valid,clock,2,0.945491232256245,1,j,1,same,0.4922887735938275,0.1228776024526318,0,0,0,0.3875210405312828,0,0,4.516113005613079
5,26,female,8,15,105,right,same,catch,anti,1,0.7374225092626148,0,f,0,change,0.8377091865022521,0,0,0,0,0.3874581755299005,0,0,5.815325396948538
5,26,female,9,45,355,right,change,valid,anti,2,1.560104394391601,1,f,1,change,0.7811547402779979,0.12255155065163265,0,0,0,0.38747838213748764,0,0,5.538286710596367
5,26,female,10,135,135,left,same,valid,clock,2,0.9774484635290719,1,j,1,same,0.5425438900347217,0.12222041130129213,0,0,0,0.38745272295273026,0,0,4.182741183505641
5,26,female,11,135,85,right,change,valid,anti,2,1.057465668010991,1,f,1,change,0.5512404291239363,0.1218832011314186,0,0,0,0.38755632190986944,0,0,4.4086423982098495
5,26,female,12,135,15,left,same,catch,anti,1,0.7294655961668468,0,f,0,change,0.839282735987581,0,0,0,0,0.3874424592795549,0,0,6.392594182036191
5,26,female,13,45,45,left,same,valid,anti,1,0.7204492794899124,0,f,0,change,0.3048548459937592,0.12153891574820991,0,0,0,0.38750500354035466,0,0,4.370733198365997
5,26,female,14,75,25,right,change,catch,clock,2,1.0094598998257425,1,j,0,same,1.0349138107994804,0,0,0,0,0.38745560961069714,0,0,6.454816742105322
5,26,female,15,165,165,right,same,valid,clock,2,0.8714869369086955,1,j,1,same,0.5665333030538022,0.1224553766822905,0,0,0,0.38754509601676546,0,0,4.293525995319214
5,26,female,16,165,165,left,same,valid,anti,2,0.8894538185995771,1,j,1,same,0.4397499897368107,0.12212682867595237,0,0,0,0.3874729295603174,0,0,4.162246872145261
5,26,female,17,135,185,left,change,valid,clock,1,0.8654951966000226,0,f,1,change,0.5304459053077153,0.1217919710941921,0,0,0,0.38747709917879547,0,0,4.1317271966818225
5,26,female,18,45,95,left,change,valid,clock,1,0.9854996741287323,0,f,1,change,0.2795099865543307,0.12268181214364243,0,0,0,0.38745176073280163,0,0,4.124528512485995
5,26,female,19,135,155,right,change,catch,clock,1,0.8894368193905393,0,f,1,change,0.5974221500346175,0,0,0,0,0.3874514399940381,0,0,6.017923902556504
5,26,female,20,105,105,left,same,valid,anti,1,0.6404272639101691,0,f,0,change,0.38860963143270055,0.1235154229328495,0,0,0,0.3874803065773449,0,0,4.133978148638562
5,26,female,21,75,75,right,same,valid,anti,2,0.8654474063696398,1,j,1,same,0.4660901047918742,0.1243112395909412,0,0,0,0.38756851002290205,0,0,3.998564689369232
5,26,female,22,75,75,left,same,valid,anti,2,0.8574568155927409,1,j,1,same,0.5650113926785707,0.12401334425490063,0,0,0,0.387526493108453,0,0,4.2278089750689105
5,26,female,23,45,355,left,change,valid,anti,1,0.8734383178871212,0,f,1,change,0.7190662494485878,0.12371464437515106,0,0,0,0.3874023668031441,0,0,4.415245468588182
5,26,female,24,15,65,left,change,valid,clock,2,0.825428059344631,1,f,1,change,0.5469271202182426,0.1244958026091923,0,0,0,0.38737863205824397,0,0,4.383045758024309
5,26,female,25,135,165,left,change,catch,anti,1,0.8094686880976951,0,f,1,change,0.6942974387002323,0,0,0,0,0.3874896080305916,0,0,5.799780742268922
5,26,female,26,165,115,left,change,valid,anti,2,0.7924390081188903,1,f,1,change,0.6726391625852557,0.1242020063657146,0,0,0,0.38751173907803604,0,0,4.52157648746288
5,26,female,27,135,85,left,change,valid,anti,1,0.833494986196456,0,f,1,change,0.40937721310365305,0.12390793055382032,0,0,0,0.3874892872918281,0,0,3.963984768708542
5,26,female,28,45,45,right,same,valid,clock,3,1.049481492029372,1,j,1,same,0.390774304378283,0.12467565169792122,0,0,0,0.3874812687954545,0,0,4.104691396987619
5,26,female,29,45,75,left,same,catch,anti,1,0.6254570542241709,0,f,0,change,0.34047524658490147,0,0,0,0,0.38748736285197083,0,0,5.690534840041437
5,26,female,30,105,105,right,same,valid,anti,3,0.943144058357575,1,j,1,same,0.39227536666840024,0.12438555828209258,0,0,0,0.3873972349665564,0,0,4.6091083048504515
5,26,female,31,135,135,left,same,valid,anti,2,2.9535536687508284,1,f,0,change,0.6226146580665954,0.12409568872296695,0,0,0,0.38749570208710793,0,0,6.413812082397271
5,26,female,32,15,135,left,change,catch,anti,1,0.6734948963876377,0,f,1,change,0.316728312856867,0,0,0,0,0.38750724872079445,0,0,5.34725600681486
5,26,female,33,105,155,right,change,valid,clock,2,1.0404318184155272,1,f,1,change,0.5911205750744557,0.1238052152001698,0,0,0,0.38741712083356106,0,0,5.0238527778637945
5,26,female,34,15,325,left,change,valid,anti,1,0.7454195148366125,0,f,1,change,1.2872888890597096,0.12351331567706997,0,0,0,0.3874251393299346,0,0,5.072145287434978
5,26,female,35,135,135,right,same,valid,anti,3,1.2494717415393097,1,j,1,same,0.6031226586001139,0.12427829849082994,0,0,0,0.3874055742016935,0,0,5.144970222516349
5,26,female,36,165,215,left,change,valid,clock,2,2.7054639950310957,1,f,1,change,0.9030483752594591,0.12399213472000381,0,0,0,0.387450798512873,0,0,6.739985861790046
5,26,female,37,15,325,right,change,valid,anti,2,0.9854810712204198,1,f,1,change,0.642864244951852,0.12370505847464863,0,0,0,0.38744342149766453,0,0,4.583238715091284
5,26,female,38,105,95,right,same,catch,clock,1,0.7934352259544539,0,f,0,change,0.3984836063482362,0,0,0,0,0.38748896654942655,0,0,5.675115594625822
5,26,female,39,45,95,right,change,valid,clock,2,0.7921724733405426,1,f,1,change,1.4728442436189653,0.12341626769943365,0,0,0,0.3874665147632186,0,0,5.515409943960549
5,26,female,40,15,15,left,same,valid,anti,1,0.7295050471620925,0,f,0,change,1.1060519752427354,0.12312496033829062,0,0,0,0.3874751747389382,0,0,5.127299383666468
5,26,female,41,105,105,left,same,valid,clock,1,0.6174619730882114,0,f,0,change,0.6121979913987161,0.12389120185666391,0,0,0,0.38746940142118547,0,0,4.41741078301493
5,26,female,42,105,55,right,change,valid,anti,2,0.7454297785097879,1,f,1,change,0.5467754102901381,0.1246294670398671,0,0,0,0.3874825517541467,0,0,4.241229370016299
5,26,female,43,15,15,right,same,valid,clock,3,1.2894202050683816,1,j,1,same,0.6739234047672653,0.12435076882111723,0,0,0,0.3875066072396294,0,0,4.8451772921343945
5,26,female,44,75,25,left,change,valid,anti,1,0.7854234663500392,0,f,1,change,0.9873234006627172,0.12407212232725162,0,0,0,0.38749570208710793,0,0,4.719676938038901
5,26,female,45,15,15,right,same,valid,anti,3,1.2014630866979132,1,j,1,same,0.687893868482206,0.12479866704976145,0,0,0,0.3874841554552404,0,0,5.063193439458701
5,26,female,46,75,25,right,change,valid,anti,2,0.8414342586038401,1,f,1,change,0.6024551990631153,0.12452316630385735,0,0,0,0.38747902361683373,0,0,4.375646290709483
5,26,female,47,135,135,right,same,valid,clock,3,1.0654524099099945,1,j,1,same,0.8029188605269155,0.12424817148839518,0,0,0,0.3873924238705513,0,0,4.837688979894665
5,26,female,48,165,215,right,change,valid,clock,1,1.0495055475148547,0,f,1,change,1.0086641443685949,0.12397292418607597,0,0,0,0.3874119889969734,0,0,4.960735032997036
5,26,female,49,165,115,right,change,valid,anti,2,0.9454187450610334,1,f,1,change,0.6648605808204593,0.12469136964452593,0,0,0,0.3874607414472848,0,0,5.071427471750212
5,26,female,50,105,105,right,same,valid,clock,3,1.033431030678912,1,j,1,same,0.5994976573165332,0.12441967812874932,0,0,0,0.3874748540001747,0,0,4.528105466946727
5,26,female,51,105,55,left,change,valid,anti,1,1.3132858125227358,0,f,1,change,0.33068947511492297,0.12414818304910596,0,0,0,0.3875826225739729,0,0,4.802752396566575
5,26,female,52,105,45,left,change,catch,clock,1,0.9292990039102733,0,f,1,change,0.9031615964104276,0,0,0,0,0.3874649110639439,0,0,6.595224761626014
5,26,female,53,45,45,right,same,valid,anti,3,1.0963409361502272,1,j,1,same,0.5904242489559692,0.12485566844062718,0,0,0,0.3875037205816625,0,0,4.835870064454866
5,26,female,54,15,65,right,change,valid,clock,3,1.153410169761628,1,f,1,change,0.5383646503669297,0.12458695011537696,0,0,0,0.3874924946885585,0,0,4.807495176073644
5,26,female,55,75,75,left,same,valid,clock,3,1.0014497439206025,1,j,1,same,0.6086852490479941,0.12431886061245317,0,0,0,0.38745881700924656,0,0,4.8015746400014905
5,26,female,56,75,125,right,change,valid,clock,3,0.9934386257955339,1,f,1,change,0.49608440845258883,0.12405067273561193,0,0,0,0.38751334277549176,0,0,4.7148773875869665
5,26,female,57,105,155,left,change,valid,clock,3,0.8254873962087004,1,f,1,change,0.6574906215682859,0.1237816660620355,0,0,0,0.38744278001831844,0,0,4.402478741367304
5,26,female,58,75,75,right,same,valid,clock,3,1.0814303840670618,1,j,1,same,0.3878475536530459,0.12351112352116428,0,0,0,0.3874652318045264,0,0,4.369942574745437
5,26,female,1,15,15,left,same,valid,clock,1,1.0244564101776632,0,f,0,change,0.5792641074185667,0.1232383280473966,0,0,0,0.3874892872900091,0,0,4.721505796409474
5,26,female,2,165,165,left,same,valid,anti,3,0.9694748719612107,1,j,1,same,0.4719442477235134,0.12395551753657563,0,0,0,0.3874347615237639,0,0,4.707936257453184
5,26,female,3,165,215,right,change,valid,clock,3,0.9454460079432465,1,f,1,change,0.6317214233658888,0.12368937189535306,0,0,0,0.38752681384721654,0,0,4.4433336155834695
5,26,female,4,105,55,left,change,valid,anti,2,0.9774346717149456,1,f,1,change,0.5663261051413429,0.12342144213244938,0,0,0,0.38749057024870126,0,0,4.268036161489363
5,26,female,5,45,355,left,change,valid,anti,1,0.7854725395409332,0,f,1,change,0.730000910902163,0.12315102563353753,0,0,0,0.3874642695864168,0,0,4.280134466955133
5,26,female,6,135,135,right,same,valid,anti,2,1.0654020537604083,1,j,1,same,0.9092841985620908,0.12386260162843027,0,0,0,0.3875127012961457,0,0,4.7324500800568785
5,26,female,7,165,165,right,same,valid,clock,1,0.9294978625894146,0,f,0,change,0.39937879114404495,0.12359915610562444,0,0,0,0.387499871703767,0,0,4.532330893143808
5,26,female,8,135,155,right,change,catch,clock,1,0.9454739123084437,0,f,1,change,0.5585209019700415,0,0,0,0,0.38750051318311307,0,0,5.940220835769651
5,26,female,9,15,105,right,same,catch,anti,1,0.6956269051934214,0,f,0,change,0.284683519619648,0,0,0,0,0.387458496268664,0,0,5.768452481757777
5,26,female,10,105,45,left,change,catch,clock,1,0.7603868378646439,0,f,1,change,0.37830971405310265,0,0,0,0,0.38746330736648815,0,0,6.111964172079752
5,26,female,11,105,95,right,same,catch,clock,1,0.6323192823638237,0,f,0,change,0.2841482048843318,0,0,0,0,0.38749057024870126,0,0,5.877553730331783
5,26,female,12,45,45,right,same,valid,anti,2,1.2004254934254277,1,j,1,same,0.6377741042379057,0.12428955459120483,0,0,0,0.3873994801451772,0,0,5.072975682791366
5,26,female,13,45,95,right,change,valid,clock,2,0.937454454948238,1,f,1,change,0.5276176217012107,0.12403113738670196,0,0,0,0.3874058949404571,0,0,4.465671539346658
5,26,female,14,135,185,right,change,valid,clock,2,0.9614425850104453,1,f,1,change,0.5686161873527453,0.12377181585543351,0,0,0,0.38742161119080265,0,0,4.242784637333898
5,26,female,15,75,75,right,same,valid,clock,3,1.0095012752608454,1,j,1,same,0.3705163782578893,0.12351091773205547,0,0,0,0.38749506060776184,0,0,4.302173781959937
5,26,female,16,135,135,left,same,valid,clock,3,0.8734764859236748,1,j,1,same,0.6333735541047645,0.12324777015768534,0,0,0,0.3874729295603174,0,0,4.691153547124486
5,26,female,17,105,155,left,change,valid,clock,1,0.7535027994163102,0,f,1,change,0.26143148741175537,0.12298169669491144,0,0,0,0.3875014754030417,0,0,3.882134856976336
5,26,female,18,15,135,left,change,catch,anti,1,0.8494835447636433,0,f,1,change,0.32874066005751956,0,0,0,0,0.38747998583494336,0,0,5.534238332767927
5,26,female,19,15,65,right,change,valid,clock,3,1.024404771067566,1,f,1,change,0.6222137333097635,0.1236830572535697,0,0,0,0.3874347615237639,0,0,4.977094046042112
5,26,female,20,15,15,right,same,valid,anti,3,1.01746332019502,1,j,1,same,0.49516709260933567,0.12342456145519315,0,0,0,0.38750724871897546,0,0,4.6142568202121765
5,26,female,21,135,85,right,change,valid,anti,3,0.969454344613041,1,f,1,change,0.6749799216868269,0.12316359778921582,0,0,0,0.38739755570532,0,0,4.683924071907313
5,26,female,22,135,135,right,same,valid,clock,3,1.0174793571859482,1,j,1,same,0.524942972462668,0.12289950166923092,0,0,0,0.38741647935421497,0,0,4.201820390841021
5,26,female,23,75,75,right,same,valid,anti,3,1.1454782743694523,1,j,1,same,0.6639150398732454,0.12263160102028003,0,0,0,0.38753290790373285,0,0,4.885206582093815
5,26,female,24,45,355,right,change,valid,anti,3,1.057461498394332,1,f,1,change,0.6047949959465768,0.12235921339603406,0,0,0,0.3874402140991151,0,0,4.624289882071025
5,26,female,25,75,125,left,change,valid,clock,3,0.9534359572426183,1,f,1,change,0.5310729516277206,0.12208164306681135,0,0,0,0.3874629866259056,0,0,4.622174923793864
5,26,female,26,105,105,right,same,valid,anti,3,1.025500097504846,1,j,1,same,0.3687622522611491,0.12179817805943066,0,0,0,0.38741391343501164,0,0,4.17065763206665
5,26,female,27,165,165,right,same,valid,anti,3,0.8574305149286374,1,j,1,same,0.4024348000129976,0.12150808712982158,0,0,0,0.38749794726390974,0,0,4.437089773788102
5,26,female,28,75,125,right,change,valid,clock,3,0.9134130820784776,1,f,1,change,0.5487787511174247,0.12121061664907168,0,0,0,0.38741327195566555,0,0,4.197388408207189
5,26,female,29,75,25,right,change,catch,clock,1,0.6735160652151535,0,f,1,change,0.29968387884764525,0,0,0,0,0.38748062731428945,0,0,5.332140181255454
5,26,female,30,105,55,right,change,valid,anti,1,0.6562188882398914,0,f,1,change,0.41129138826363487,0.1209049873831835,0,0,0,0.38745047777410946,0,0,4.343374092948579
5,26,female,31,165,215,left,change,valid,clock,2,1.073429208876405,1,f,1,change,0.4553292843138479,0.12172315514755389,0,0,0,0.38744117631904373,0,0,4.404294770145498
5,26,female,32,75,25,left,change,valid,anti,1,0.9374945474228298,0,f,1,change,0.4030679403895192,0.12143406546141311,0,0,0,0.38743155412521446,0,0,4.412669927949537
5,26,female,33,105,105,left,same,valid,anti,2,1.6813305698397016,1,j,1,same,0.6830943180302711,0.12220547517260633,0,0,0,0.3874424592777359,0,0,5.196587841650398
5,26,female,34,45,45,right,same,valid,clock,3,1.0734792442854086,1,j,1,same,0.3610228007528349,0.12193044445377227,0,0,0,0.38740493272234744,0,0,4.33646567827418
5,26,female,35,165,115,left,change,valid,anti,3,1.0654241848078527,1,f,1,change,0.779671639416847,0.12164919967442078,0,0,0,0.3875069279802119,0,0,5.005902574641368
5,26,female,36,75,75,left,same,valid,anti,3,0.8254245312054991,1,j,1,same,0.4685889886186487,0.1213610240033946,0,0,0,0.38745496813135105,0,0,4.2538382932525565
5,26,female,37,15,65,left,change,valid,clock,3,0.8573926676308474,1,f,1,change,0.6636683909655403,0.1210651771922382,0,0,0,0.3874668355038011,0,0,4.425293925958613
5,26,female,38,165,115,right,change,valid,anti,1,0.6495061248479033,0,f,1,change,0.31717349970858777,0.12076089246560556,0,0,0,0.38751238055738213,0,0,3.8094949887599796
5,26,female,39,15,325,left,change,valid,anti,3,0.8654195020062616,1,f,1,change,0.4614278309782094,0.12157625915232012,0,0,0,0.387507569459558,0,0,4.2900777216709685
5,26,female,40,165,165,left,same,valid,clock,3,0.8175032202289003,1,j,1,same,0.3861643111540616,0.12128891375424661,0,0,0,0.387469722161768,0,0,3.9665308012845344
5,26,female,41,15,15,left,same,valid,anti,1,0.8894708178086148,0,f,0,change,0.46938859295369184,0.12099375751760455,0,0,0,0.3874976265251462,0,0,4.107035363487739
5,26,female,42,135,165,left,change,catch,anti,1,0.585520458067549,0,f,1,change,0.2626583171677339,0,0,0,0,0.3874729295603174,0,0,5.0662702964164055
5,26,female,43,75,75,left,same,valid,clock,1,0.5923733847539552,0,f,0,change,0.25571494185533084,0.12178366089456655,0,0,0,0.3874447044581757,0,0,4.115610342190848
5,26,female,44,45,45,left,same,valid,anti,2,1.1454368989343493,1,j,1,same,0.41428806026851817,0.12251023504898417,0,0,0,0.3874469496349775,0,0,4.195494439654794
5,26,female,45,15,325,right,change,valid,anti,2,2.2174917377415113,1,f,1,change,0.48165175868052756,0.12224963031734987,0,0,0,0.3874341200444178,0,0,5.821915316993909
5,26,female,46,75,105,right,same,catch,clock,1,0.6094396290718578,0,f,0,change,0.24235195933579234,0,0,0,0,0.38747774065632257,0,0,5.596889721957268
5,26,female,47,45,45,left,same,valid,clock,2,1.2480877492798754,1,j,1,same,0.9509069238756638,0.12198370192726204,0,0,0,0.3874078193803143,0,0,5.320189736839893
5,26,female,48,45,75,left,same,catch,anti,1,0.6575012059820438,0,f,0,change,0.27432586907525547,0,0,0,0,0.3874305919071048,0,0,5.347240290564514
5,26,female,49,75,25,right,change,valid,anti,2,1.1604128819362813,1,f,1,change,0.6742784637335717,0.12171179247321445,0,0,0,0.38746106218786736,0,0,4.95894145600505
5,26,female,50,135,135,left,same,valid,anti,3,0.9134951914693374,1,j,1,same,0.3985676401753153,0.12143322539647117,0,0,0,0.38748383471465786,0,0,4.500619348564214
5,26,female,51,105,105,right,same,valid,clock,2,1.6734243336304644,1,f,0,change,2.547703310548968,0.12114730224030212,0,0,0,0.3874135926962481,0,0,6.870553584076333
5,26,female,52,45,95,left,change,valid,clock,1,0.77741555562352,0,f,1,change,0.9354758110857802,0.12085329980204912,0,0,0,0.38745336443389533,0,0,4.629482980262765
5,26,female,53,15,15,right,same,valid,clock,3,1.241516111402234,1,j,1,same,0.4760817912174389,0.12164087407216428,0,0,0,0.3874296296871762,0,0,4.722601443585518
5,26,female,54,135,185,left,change,valid,clock,2,1.2174375327158486,1,f,1,change,0.7961717779762694,0.1213630391155065,0,0,0,0.3874831932353118,0,0,5.010261428602462
5,26,female,55,135,15,left,same,catch,anti,1,0.7374754313314043,0,f,0,change,0.6506014512833644,0,0,0,0,0.3874235356306599,0,0,5.721547813323923
5,26,female,56,105,105,left,same,valid,clock,2,1.0884302095837484,1,j,1,same,0.413934925742069,0.12107771392023259,0,0,0,0.38757235889897856,0,0,4.738731448411272
5,26,female,57,105,155,right,change,valid,clock,2,0.9694828904557653,1,f,1,change,0.5685308705633361,0.12078418025058707,0,0,0,0.3874758162182843,0,0,4.786586468886526
5,26,female,58,135,85,left,change,valid,anti,1,0.8015066431635205,0,f,1,change,0.25338091828962206,0.1204816918053091,0,0,0,0.3874742125208286,0,0,3.7719645826273336
5,26,female,1,135,185,right,change,valid,clock,2,1.2798073123540235,1,f,1,change,0.5809050122643384,0.12129368141148039,0,0,0,0.387545416757348,0,0,4.953453918669766
5,26,female,2,165,165,left,same,valid,anti,3,1.2814334631693782,1,j,1,same,0.6193822423047095,0.12100888244415176,0,0,0,0.3875069279802119,0,0,5.078332037544897
5,26,female,3,15,105,right,same,catch,anti,1,1.0254481376559852,0,f,0,change,0.5644128922012897,0,0,0,0,0.3875248894091783,0,0,6.267509185989184
5,26,female,4,75,75,right,same,valid,anti,2,1.4724510166179243,1,j,1,same,0.5644366269461898,0.12071574888898645,0,0,0,0.3873840846354142,0,0,5.262638431300729
5,26,female,5,75,105,right,same,catch,clock,1,0.9294539212351083,0,f,0,change,0.45381988278859353,0,0,0,0,0.38745496813135105,0,0,5.7370267163441895
5,26,female,6,105,45,left,change,catch,clock,1,0.632241984070788,0,f,1,change,0.2836850566054636,0,0,0,0,0.3874363652230386,0,0,5.581571188840826
5,26,female,7,15,15,right,same,valid,clock,3,1.67221418234476,1,j,1,same,0.399591120894911,0.1204135387555646,0,0,0,0.387488645810663,0,0,5.507643871047549
5,26,female,8,165,215,right,change,valid,clock,2,0.9934899441668676,1,f,1,change,0.8528670289742877,0.12010147862711551,0,0,0,0.38749057024870126,0,0,4.919351258839015
5,26,female,9,75,75,left,same,valid,anti,3,0.7774614214158646,1,j,1,same,0.4782525582195376,0.11978103133919116,0,0,0,0.3874645903251803,0,0,4.227985381961844
5,26,female,10,75,25,right,change,catch,clock,2,1.0494914349637838,1,j,0,same,0.8613512383126363,0,0,0,0,0.3874665147650376,0,0,6.049361535342541
5,26,female,11,45,355,left,change,valid,anti,2,1.6403971143681702,1,f,1,change,0.879713271442597,0.1194706359067404,0,0,0,0.38746555254510895,0,0,5.6007876728144765
5,26,female,12,135,135,left,same,valid,clock,1,0.8414435600589059,0,f,0,change,1.2830041259967402,0.11917220206080142,0,0,0,0.38742161119080265,0,0,4.9353683632507455
5,26,female,13,105,155,right,change,valid,clock,1,0.6254881659842795,0,f,1,change,0.5528601651421923,0.12003401287592835,0,0,0,0.3874748539983557,0,0,4.556466884258043
5,26,female,14,15,15,right,same,valid,anti,3,0.8015127372182178,1,j,1,same,0.44237556578627846,0.12087333643546067,0,0,0,0.3875402849189413,0,0,4.296020388788747
5,26,female,15,15,325,left,change,valid,anti,1,0.4254247877979651,0,f,1,change,0.4013282476844324,0.12058080658334641,0,0,0,0.387405253461111,0,0,3.5727800315089553
5,26,female,16,105,155,left,change,valid,clock,2,0.7294315977451333,1,f,1,change,0.5805740087871527,0.12136580553529885,0,0,0,0.38749281542914105,0,0,4.279403500939225
5,26,female,17,45,45,right,same,valid,clock,3,0.8894727422466531,1,j,1,same,0.4010995602020557,0.12109017480556244,0,0,0,0.3874196867527644,0,0,4.107664013507019
5,26,female,18,135,85,right,change,valid,anti,3,0.7214766090874036,1,f,1,change,0.8572768805606756,0.12080654922243195,0,0,0,0.3874456666781043,0,0,4.291315777320051
5,26,female,19,75,75,right,same,valid,clock,3,0.6094720237906586,1,j,1,same,0.4025611714969273,0.1205142273502337,0,0,0,0.3874402140991151,0,0,4.016112364133733
5,26,female,20,75,75,left,same,valid,clock,1,0.4014324881190987,0,f,0,change,0.4380632190986944,0.12021247846215871,0,0,0,0.3874196867527644,0,0,3.533990400897892
5,26,female,21,105,55,left,change,valid,anti,1,0.2654586964108603,0,f,1,change,0.305057553550796,0.12102373518424309,0,0,0,0.3875258516291069,0,0,3.4546849180442223
5,26,female,22,135,165,left,change,catch,anti,1,0.353482849401189,0,f,1,change,0.3057497100508044,0,0,0,0,0.38744598741686787,0,0,5.331729313566029
5,26,female,23,45,45,left,same,valid,clock,1,0.20819990557538404,0,f,0,change,0.35445372879257775,0.12176067202727336,0,0,0,0.3874796650961798,0,0,3.9257580364555906
5,26,female,24,15,65,right,change,valid,clock,1,0.27349387002141157,0,f,1,change,0.48734296579095826,0.12243800897340296,0,0,0,0.3874703636411141,0,0,3.816834798471973
5,26,female,25,165,165,right,same,valid,clock,3,1.1134488766419963,1,j,1,same,0.6703291945068486,0.12306854243098159,0,0,0,0.3874841554534214,0,0,4.808463489547648
5,26,female,26,165,165,left,same,valid,clock,3,0.7373628516597819,1,j,1,same,0.7201413692764618,0.12283974115135776,0,0,0,0.3875043620610086,0,0,4.490840954111263
5,26,female,27,105,105,right,same,valid,clock,3,0.5374268071755068,1,j,1,same,0.6487405189309357,0.12260719911665652,0,0,0,0.38754124713886995,0,0,4.213175221439087
5,26,female,28,165,165,right,same,valid,anti,3,0.4813265285174566,1,j,1,same,0.35003425501054153,0.1223703831363902,0,0,0,0.3874280259879015,0,0,3.8878331203632115
5,26,female,29,45,95,left,change,valid,clock,3,0.577483680757723,1,f,1,change,0.8966316547102906,0.12212874812431762,0,0,0,0.3874453459375218,0,0,4.450557317484709
5,26,female,30,105,105,left,same,valid,clock,3,0.4893389296012174,1,j,1,same,0.7435322818200802,0.12188173508288802,0,0,0,0.387488645810663,0,0,4.275372763802807
5,26,female,31,135,155,right,change,catch,clock,1,1.3374259732536302,0,f,1,change,0.8482336217421107,0,0,0,0,0.38754637897545763,0,0,6.782853057547982
5,26,female,32,15,135,left,change,catch,anti,1,0.2563528933296766,0,f,1,change,0.3070047649089247,0,0,0,0,0.38743315782448917,0,0,5.363178492985753
5,26,female,33,105,55,right,change,valid,anti,3,0.5601595616390114,1,f,1,change,0.8875290590258373,0.12162876903083097,0,0,0,0.38747389178024605,0,0,4.604178854779093
5,26,female,34,75,125,right,change,valid,clock,3,0.5454558867313608,1,f,1,change,0.855031060444162,0.12136925686233951,0,0,0,0.38750275836355286,0,0,4.344658976608116
5,26,female,35,105,105,left,same,valid,anti,1,0.36143655510022654,0,f,0,change,0.4665651204450114,0.12110258512594996,0,0,0,0.38743219560456055,0,0,3.8706822007370647
5,26,female,36,45,45,left,same,valid,anti,3,1.3454136773707432,1,j,1,same,0.986776860034297,0.12181639020395713,0,0,0,0.38743828966107685,0,0,5.360675118803556
5,26,female,37,45,355,right,change,valid,anti,3,0.42550850088809966,1,f,1,change,0.8499861440395762,0.12156391649430676,0,0,0,0.38749666430703655,0,0,4.168311099650964
5,26,female,38,105,95,right,same,catch,clock,2,0.9854672794081125,1,f,0,change,0.8990333543733868,0,0,0,0,0.3873962727466278,0,0,6.57931093543084
5,26,female,39,135,185,left,change,valid,clock,1,0.320430933174066,0,f,1,change,1.129853434738834,0.12130477728890632,0,0,0,0.38745336443207634,0,0,4.625589840501561
5,26,female,40,105,105,right,same,valid,anti,3,2.817544916400948,1,j,1,same,1.1343713756414218,0.12199763983729472,0,0,0,0.38749730578638264,0,0,6.974863621433542
5,26,female,41,75,25,left,change,valid,anti,1,0.2654452253391355,0,f,1,change,0.5195064327581349,0.12175179273373404,0,0,0,0.3874485533342522,0,0,3.960076874916922
5,26,female,42,15,15,left,same,valid,clock,1,0.2334812585304462,0,f,0,change,1.071612538617046,0.12240728008630636,0,0,0,0.38748607989327866,0,0,4.3886622327609075
5,26,female,43,135,135,left,same,valid,anti,1,0.23343860013847006,0,f,0,change,0.6733281116903527,0.12301689495320967,0,0,0,0.387477419917559,0,0,3.875881072246557
5,26,female,44,135,135,right,same,valid,clock,3,0.7054530898785742,1,j,1,same,0.3970617667891929,0.12359131201149776,0,0,0,0.3874896080305916,0,0,4.309655358663804
5,26,female,45,15,65,left,change,valid,clock,3,0.5374662581725715,1,f,1,change,0.7836395115518826,0.12338027935435741,0,0,0,0.3874370067005657,0,0,4.251039838451106
5,26,female,46,75,25,right,change,valid,anti,2,0.5934722393285483,1,f,1,change,0.7673388731509476,0.12316676932483123,0,0,0,0.38753964343959524,0,0,4.50280935995761
5,26,female,47,45,75,left,same,catch,anti,1,0.3054610442268313,0,f,0,change,0.5231843561086862,0,0,0,0,0.38745496813135105,0,0,5.331605508001303
5,26,female,48,135,15,left,same,catch,anti,1,0.2159909961919766,0,f,0,change,0.6718418034288334,0,0,0,0,0.3875069279783929,0,0,5.4564088944989635
5,26,female,49,165,115,left,change,valid,anti,1,0.1761409997852752,0,f,1,change,0.26103248709478066,0.12295031044564564,0,0,0,0.38747004290235054,0,0,3.4579333707952173
5,26,female,50,165,115,right,change,valid,anti,2,0.9454354235313076,1,f,1,change,0.9244875860858883,0.12352216656795756,0,0,0,0.3875386812214856,0,0,4.953298680604348
5,26,female,51,15,325,right,change,valid,anti,2,0.7454435703220952,1,f,1,change,0.7915758973012998,0.12331246057071982,0,0,0,0.3874373274429672,0,0,4.46280829510215
5,26,female,52,15,15,left,same,valid,anti,3,0.9534465416545572,1,j,1,same,0.8938566139113391,0.12310013398414882,0,0,0,0.38750404132224503,0,0,4.800046956306687
5,26,female,53,45,45,right,same,valid,anti,3,0.3694518428419542,1,j,1,same,0.7377746815709543,0.12288472087418534,0,0,0,0.3874463081556314,0,0,4.0658847671693366
5,26,female,54,45,95,right,change,valid,clock,3,0.8734203564563359,1,f,1,change,0.7285444314438791,0.12266574786061663,0,0,0,0.38752456866859575,0,0,4.624231186686302
5,26,female,55,75,125,left,change,valid,clock,1,0.4494648777090333,0,f,1,change,0.3203610118962388,0.12244273246294679,0,0,0,0.3874235356306599,0,0,3.7897518500285514
5,26,female,56,135,85,left,change,valid,anti,1,0.21746287116184249,0,f,1,change,0.3343359659666021,0.12303452254300251,0,0,0,0.3874463081556314,0,0,3.4216496802873735
5,26,female,57,135,135,right,same,valid,anti,2,0.8094795932502166,1,j,1,same,0.582249553530346,0.12359221443744833,0,0,0,0.3874562510900432,0,0,4.5801977809933305
5,26,female,58,165,215,left,change,valid,clock,2,0.473463271444416,1,f,1,change,0.7876830782806792,0.12338736827953883,0,0,0,0.3875309834656946,0,0,4.032043510280346
