subject,age,gender,ntrial,memory_ori,test_ori,cue,type,trial_type,which_change,pas,pas_rt,vis,test_key,test_acc,test,test_rt,contrast,fix_dur,cue_dur,jitter_dur,target_dur,mask_dur,retention_dur,trial_dur
6,23,female,1,165,215,right,change,valid,clock,2,1.304167139755009,1,j,1,change,1.1443440324692347,0.5,0,0,0,0.38739382812673284,0,0,5.513271123238155
6,23,female,2,45,45,left,same,valid,clock,2,0.649344638661205,1,j,0,change,0.9256567565425939,0.4069419370673367,0,0,0,0.38743424095446244,0,0,5.098895960063601
6,23,female,3,45,45,right,same,valid,anti,2,1.09738272422328,1,f,1,same,2.109509458847242,0.3461892688284379,0,0,0,0.38742301516867883,0,0,6.403794700274375
6,23,female,4,105,105,left,same,valid,clock,2,1.8253694405902934,1,f,1,same,1.3215436930022406,0.2977447647674634,0,0,0,0.387471767149691,0,0,6.3834349747994565
6,23,female,5,15,325,left,change,valid,anti,2,1.9773848539134633,1,j,1,change,1.2246119246065064,0.25592670972998877,0,0,0,0.387410506436936,0,0,6.449700143240989
6,23,female,6,105,155,left,change,valid,clock,2,0.6253891338255926,1,j,1,change,0.8385796238544572,0.21928796852134014,0,0,0,0.3874111479108251,0,0,4.805799689655032
6,23,female,7,15,325,right,change,valid,anti,2,0.43348690207312757,1,j,1,change,1.089582086467999,0.18534516214727204,0,0,0,0.38742622253630543,0,0,4.567743443982181
6,23,female,8,165,215,left,change,valid,clock,2,0.305410956751075,1,j,1,change,0.9114567797641939,0.15488367948209586,0,0,0,0.3873845267626166,0,0,4.219731594683253
6,23,female,9,15,65,right,same,catch,clock,2,0.8734356868353643,1,f,1,same,0.6690625699593511,0,0,0,0,0.3874259017993609,0,0,6.220989524095785
6,23,female,10,75,75,right,same,valid,anti,2,0.7279799808966345,1,f,1,same,1.6132418720517308,0.12473050325576701,0,0,0,0.3873729802417074,0,0,5.524666578143297
6,23,female,11,105,45,right,change,catch,anti,2,0.6494902531321713,1,j,1,change,1.0325432304980495,0,0,0,0,0.3874271847471391,0,0,6.173804662357725
6,23,female,12,135,135,right,same,valid,clock,2,1.472476940634806,1,f,1,same,1.5507883387817856,0.09631031933527462,0,0,0,0.38736015077302,0,0,6.422040770768945
6,23,female,13,15,15,right,same,valid,anti,2,1.753499397977066,1,f,1,same,1.136098853621661,0.07085810833100747,0,0,0,0.3874303921129467,0,0,6.320942311651379
6,23,female,14,75,55,right,same,catch,clock,2,0.8654329849505302,1,f,1,same,1.229790218940252,0,0,0,0,0.3874659938883269,0,0,6.891819353382743
6,23,female,15,165,15,left,same,catch,anti,2,1.671881524987839,1,j,0,change,1.2735265194751264,0,0,0,0,0.3874791440939589,0,0,7.968206972687767
6,23,female,16,135,135,right,same,valid,anti,2,0.7124871144023928,1,f,1,same,1.1056917296755273,0.0459659317711002,0,0,0,0.3874441837924678,0,0,4.708019572637568
6,23,female,17,15,15,right,same,valid,clock,2,0.6414294979003898,1,f,1,same,1.4070652526024787,0.02302303833090036,0,0,0,0.38738709265635407,0,0,5.2510829675338755
6,23,female,18,75,125,right,change,valid,clock,1,0.6414538738899864,0,j,1,change,1.0988744707046862,5.3127085395621165e-05,0,0,0,0.3874323165346141,0,0,4.976090360514718
6,23,female,19,45,95,right,change,valid,clock,2,0.9610885419369879,1,f,0,same,0.9226668488445284,0.04888850447319565,0,0,0,0.38742365664256795,0,0,5.094547411621534
6,23,female,20,135,135,left,same,valid,clock,2,0.8013869938695279,1,f,1,same,1.7281271990505047,0.03521432499071708,0,0,0,0.3873749046615558,0,0,5.4478642462581774
6,23,female,21,135,135,left,same,valid,anti,2,0.737364095832163,1,f,1,same,1.2283956556857447,0.02285248430984177,0,0,0,0.38746246578557475,0,0,4.977959293379172
6,23,female,22,105,105,left,same,valid,anti,2,0.5933934009062796,1,f,1,same,1.1559396270858997,0.010721587492523277,0,0,0,0.3874554095782514,0,0,4.904472096226527
6,23,female,23,165,165,left,same,valid,anti,2,0.4334445648273686,1,f,1,same,1.1486233017785707,0,0,0,0,0.3874473911600944,0,0,6.127257425216158
6,23,female,24,165,165,right,same,valid,anti,2,0.5426150049624994,1,f,1,same,1.8811243874733918,0,0,0,0,0.3875144251342135,0,0,7.219067669675496
6,23,female,25,75,85,left,same,catch,anti,1,0.3444330689817434,0,j,0,change,1.418279170524329,0,0,0,0,0.387410506436936,0,0,6.59509362625613
6,23,female,26,165,165,left,same,valid,clock,1,0.4405395817975659,0,j,0,change,1.4284664102051465,0,0,0,0,0.3874072990693094,0,0,6.782515807508389
6,23,female,27,135,85,right,change,valid,anti,2,1.0558543752667902,1,f,0,same,1.3709682592525496,0.007297271917529657,0,0,0,0.3874499570538319,0,0,5.8273368396276055
6,23,female,28,15,15,left,same,valid,anti,1,1.313323210881208,0,j,0,change,2.381026562772604,0,0,0,0,0.3874659938901459,0,0,8.67003215706427
6,23,female,29,15,165,left,change,catch,clock,2,1.9923821821757883,1,f,0,same,1.870093289482611,0,0,0,0,0.3875163495540619,0,0,8.638090628650389
6,23,female,30,105,55,left,change,valid,anti,2,1.5922541440777422,1,f,0,same,1.7448475249711919,0.018931907084965283,0,0,0,0.3874675975730497,0,0,6.792716518133602
6,23,female,31,45,135,right,change,catch,anti,1,0.5454422991442698,0,j,1,change,0.7196016963134753,0,0,0,0,0.3874149967505218,0,0,5.986823494093187
6,23,female,32,45,45,left,same,valid,anti,1,0.5284624972173333,0,j,0,change,1.471050624442796,0.012510713682124364,0,0,0,0.38748427588143386,0,0,5.317838542418031
6,23,female,33,75,125,left,change,valid,clock,2,0.8493749803546962,1,j,1,change,1.9840449518924288,0.02856556891626516,0,0,0,0.3874791440939589,0,0,5.844501065166696
6,23,female,34,135,185,left,change,valid,clock,1,1.4253844510694762,0,f,0,same,2.390045358586576,0.022979902671535213,0,0,0,0.38744450452941237,0,0,6.656554479377519
6,23,female,35,75,75,left,same,valid,clock,2,1.04941718930786,1,f,1,same,1.2346381544539327,0.03708220542893881,0,0,0,0.3874647109423677,0,0,5.329431571140958
6,23,female,36,45,45,right,same,valid,clock,2,1.521415590756078,1,f,1,same,1.9753090458652878,0.03215401580790345,0,0,0,0.3874400142158265,0,0,7.041569082519345
6,23,female,37,135,85,left,change,valid,anti,2,0.8974418680736562,1,f,0,same,1.2370831304669991,0.0272537623660854,0,0,0,0.3874095442261023,0,0,5.180734179180945
6,23,female,38,135,325,left,same,catch,anti,1,0.7853604214742518,0,j,0,change,1.1651569589284918,0,0,0,0,0.3874733708344138,0,0,6.673184678278631
6,23,female,39,105,185,right,same,catch,anti,1,0.7682629091723356,0,j,0,change,1.5926893838077376,0,0,0,0,0.38746086210085195,0,0,7.359786094266383
6,23,female,40,105,55,right,change,valid,anti,1,0.21617109636281384,0,j,1,change,1.4148848138211179,0.022765436330700772,0,0,0,0.38751185923865705,0,0,5.29315528596635
6,23,female,41,105,105,right,same,valid,anti,1,0.3053734305558464,0,j,0,change,1.3305393957707565,0.034416074573066446,0,0,0,0.38744867410787265,0,0,4.331523416025448
6,23,female,42,15,65,right,change,valid,clock,2,0.9774300777917233,1,f,0,same,1.2643980317025125,0.045394768914689854,0,0,0,0.38740184654488985,0,0,5.201340230454662
6,23,female,43,75,75,right,same,valid,clock,2,0.6574098842083913,1,f,1,same,1.276052321140014,0.041514829673475695,0,0,0,0.387484917355323,0,0,5.077179197529404
6,23,female,44,45,95,left,change,valid,clock,2,0.8653896854921186,1,j,1,change,2.454729936474905,0.03759473300665167,0,0,0,0.38752244355237053,0,0,6.2857895672041195
6,23,female,45,165,115,right,change,valid,anti,2,0.5053720193136542,1,j,1,change,1.9345158254709531,0.03397366679050601,0,0,0,0.3874169211721892,0,0,5.3020781814993825
6,23,female,46,15,65,left,change,valid,clock,2,0.4654402977466816,1,j,1,change,0.8831331615456293,0.0303034902550392,0,0,0,0.3874538058935286,0,0,4.1084856672368915
6,23,female,47,15,15,left,same,valid,clock,2,0.4093947633955395,1,j,0,change,1.2070977753046463,0.026836730806269582,0,0,0,0.38750448229620815,0,0,4.820807922966196
6,23,female,48,165,115,left,change,valid,anti,1,0.3933649836344557,0,j,1,change,1.1324552844907885,0.023605238615491075,0,0,0,0.38750223713941523,0,0,4.567239887332107
6,23,female,49,45,355,right,change,valid,anti,2,0.4894958724398748,1,j,1,change,1.0402579108103964,0.032160409830566505,0,0,0,0.38749870903484407,0,0,4.754801589058843
6,23,female,50,75,25,right,change,valid,anti,2,0.32148371523362584,1,j,1,change,0.7879946321500029,0.02896879938568031,0,0,0,0.38740729907112836,0,0,4.274964061449282
6,23,female,51,45,355,left,change,valid,anti,2,0.3293347086528229,1,j,1,change,1.1943055119900237,0.025982119024144434,0,0,0,0.3874743330452475,0,0,4.839687127743673
6,23,female,52,165,165,right,same,valid,clock,1,0.44135617748543154,0,f,1,same,2.196609043106946,0.0231621812022898,0,0,0,0.3874307128498913,0,0,5.538099352690551
6,23,female,53,135,185,right,change,valid,clock,2,0.3614706035168638,1,j,1,change,1.0165695796604268,0.030738341656655788,0,0,0,0.38757664805780223,0,0,4.039124747980168
6,23,female,54,75,165,left,change,catch,anti,2,0.39346569496228767,1,f,0,same,1.1533721296473232,0,0,0,0,0.3874435423185787,0,0,6.330047064906466
6,23,female,55,75,75,left,same,valid,anti,1,0.2643739764480415,0,j,0,change,1.1164521258760942,0.02793464467615131,0,0,0,0.3873989599142078,0,0,4.774377754727539
6,23,female,56,105,155,right,change,valid,clock,2,0.4414533607123303,1,j,1,change,1.29517656877033,0.03539713948745521,0,0,0,0.38748523809226754,0,0,4.8874983882978995
6,23,female,57,75,25,left,change,valid,anti,2,0.8014623669987486,1,j,1,change,0.7117061204899073,0.03289331440556792,0,0,0,0.38743327874362876,0,0,4.6835730198836245
6,23,female,58,105,105,right,same,valid,clock,2,0.27326736420582165,1,j,0,change,1.3958737862503767,0.030288806083308917,0,0,0,0.3874352031652961,0,0,4.665834354880644
6,23,female,1,75,125,left,change,valid,clock,1,0.3681659825360839,0,f,0,same,1.0107087575870537,0.027784079114026694,0,0,0,0.3874845966183784,0,0,4.576805859987871
6,23,female,2,105,55,left,change,valid,anti,1,0.8974623952235561,0,j,1,change,0.9500449352144642,0.034527416028379554,0,0,0,0.38741948706410767,0,0,4.846574628058079
6,23,female,3,165,115,left,change,valid,anti,1,0.3374576868081931,0,f,0,same,0.7791028480787645,0.0407715522653746,0,0,0,0.38747144641456543,0,0,3.9210121681098826
6,23,female,4,75,25,right,change,valid,anti,2,0.7054389249933593,1,j,1,change,0.9714246034582175,0.047022616902763714,0,0,0,0.3874999919826223,0,0,4.780508957856
6,23,female,5,165,215,left,change,valid,clock,2,0.2814474334973056,1,j,1,change,0.8235864651669544,0.04483507477532944,0,0,0,0.3875096140836831,0,0,4.149567229946115
6,23,female,6,15,325,left,change,valid,anti,2,0.40152837461573654,1,f,0,same,1.041013245785507,0.042585103921329415,0,0,0,0.387455730313377,0,0,4.782894597574341
6,23,female,7,135,135,left,same,valid,clock,2,0.24943406005877478,1,f,1,same,1.193510084924128,0.04037756089436728,0,0,0,0.38749806756095495,0,0,4.600190453464165
6,23,female,8,45,45,right,same,valid,clock,2,1.0415033314911852,1,j,0,change,0.7821973159479967,0.03823673379886683,0,0,0,0.38744707042314985,0,0,4.684743708910901
6,23,female,9,75,75,right,same,valid,anti,2,0.5694192933387967,1,f,1,same,1.3771029904855823,0.03622101173049963,0,0,0,0.3866782645072817,0,0,4.995801556342485
6,23,female,10,75,75,left,same,valid,anti,2,0.2894947177865106,1,f,1,same,0.8489881718705874,0.03429376613193674,0,0,0,0.3874387312680483,0,0,4.298412481533887
6,23,female,11,75,25,left,change,valid,anti,2,0.3375385124618333,1,j,1,change,1.067940376326078,0.03229291734405426,0,0,0,0.38747208788663556,0,0,4.447036424786347
6,23,female,12,135,135,right,same,valid,clock,2,0.3374275375572324,1,j,0,change,0.7357703550751467,0.03031642136844498,0,0,0,0.38742205295784515,0,0,4.0400244144784665
6,23,female,13,135,325,left,same,catch,anti,2,0.4094624388435477,1,f,1,same,0.8870211320590897,0,0,0,0,0.38744867410605366,0,0,5.784194222760561
6,23,female,14,75,165,left,change,catch,anti,2,0.24049993873995845,1,f,0,same,1.1033772935079469,0,0,0,0,0.3874493155799428,0,0,5.893372360576905
6,23,female,15,135,85,right,change,valid,anti,2,0.6482820379096665,1,f,0,same,1.1014358741467731,0.028389211155014527,0,0,0,0.38750063345469243,0,0,5.167151620586083
6,23,female,16,105,155,left,change,valid,clock,1,0.561461494595278,0,j,1,change,1.425657398018302,0.0265690112675126,0,0,0,0.3874743330434285,0,0,5.066101913451348
6,23,female,17,165,15,left,same,catch,anti,3,1.4174388403189369,1,j,0,change,0.9456890098281292,0,0,0,0,0.3874201285379968,0,0,6.766810613306006
6,23,female,18,105,185,right,same,catch,anti,2,0.576163424339029,1,j,0,change,0.9334817702856526,0,0,0,0,0.38747625746509584,0,0,6.220902925184419
6,23,female,19,15,15,right,same,valid,anti,1,0.21648702203128778,0,j,0,change,0.8953371937204793,0.03174023531405129,0,0,0,0.38746888052082795,0,0,4.012577048977619
6,23,female,20,75,75,right,same,valid,clock,2,0.8574180950672599,1,f,1,same,1.1227190006356977,0.036520715707694384,0,0,0,0.3875362352318916,0,0,5.169960632774746
6,23,female,21,45,355,right,change,valid,anti,2,1.321410587263017,1,j,1,change,1.9763524024128856,0.03483910418005948,0,0,0,0.38748203072464094,0,0,6.572542306777905
6,23,female,22,15,65,left,change,valid,clock,2,0.3135227091224806,1,j,1,change,0.9728640698540403,0.03309404920561271,0,0,0,0.3874149967505218,0,0,4.636323048591294
6,23,female,23,75,85,left,same,catch,anti,2,0.40134812057840463,1,f,1,same,1.184888681906159,0,0,0,0,0.38751282144949073,0,0,6.267032883853972
6,23,female,24,105,45,right,change,catch,anti,2,0.5681491759314667,1,f,0,same,1.081435694533866,0,0,0,0,0.3874711256776209,0,0,6.595458945379505
6,23,female,25,45,95,right,change,valid,clock,1,0.25645177947990305,0,j,1,change,2.0516344422485417,0.031374336110802314,0,0,0,0.38744386305552325,0,0,5.680843871137768
6,23,female,26,75,75,left,same,valid,clock,2,0.8174382629913453,1,j,0,change,1.4507412546317937,0.03584440064795047,0,0,0,0.38750608597911196,0,0,5.209162678305802
6,23,female,27,45,45,left,same,valid,clock,2,0.27339758331254416,1,j,0,change,1.2797205869992467,0.03428894713028868,0,0,0,0.3874855588292121,0,0,4.621285307501239
6,23,female,28,75,55,right,same,catch,clock,2,0.6094196525646112,1,f,1,same,0.913982260693956,0,0,0,0,0.38750768966201576,0,0,5.955594963408657
6,23,female,29,135,185,left,change,valid,clock,2,0.5679920149377722,1,f,0,same,1.112270681265727,0.03266400144615539,0,0,0,0.3875176325018401,0,0,4.810180311767908
6,23,female,30,45,45,left,same,valid,anti,2,0.3694242326855601,1,j,0,change,1.4703844542764273,0.031054065776069506,0,0,0,0.38746246578557475,0,0,5.011979516470092
6,23,female,31,135,185,right,change,valid,clock,2,0.6493401483476191,1,j,1,change,2.1445893960590183,0.029446463602118167,0,0,0,0.3875355937580025,0,0,5.8032052503331215
6,23,female,32,15,65,right,same,catch,clock,2,0.24147145026108774,1,j,0,change,0.8800694844030659,0,0,0,0,0.38749806756095495,0,0,5.612372034067448
6,23,female,33,105,155,right,change,valid,clock,1,0.19233843368965609,0,j,1,change,1.102966429771186,0.02790933052596023,0,0,0,0.38757087479643815,0,0,4.0929462939184305
6,23,female,34,165,165,right,same,valid,anti,1,0.2174226110400923,0,j,0,change,1.766130330724991,0.03218650453455901,0,0,0,0.38751923618474393,0,0,4.908543528141308
6,23,female,35,45,135,right,change,catch,anti,2,0.8973379493763787,1,f,0,same,1.9707799226507632,0,0,0,0,0.38742141148395604,0,0,7.265337469554652
6,23,female,36,15,165,left,change,catch,clock,3,1.5364850847799971,1,f,0,same,1.227038618624647,0,0,0,0,0.38747369157135836,0,0,7.7654009754242
6,23,female,37,105,105,right,same,valid,clock,2,1.2003430599961575,1,j,0,change,1.0192069977056235,0.036131027102246416,0,0,0,0.3874881247229496,0,0,5.086930556009975
6,23,female,38,165,215,right,change,valid,clock,2,0.44947209943347843,1,j,1,change,1.0166077473313635,0.034741166353382924,0,0,0,0.3874675975712307,0,0,4.880396635857323
6,23,female,39,105,55,right,change,valid,anti,2,0.8015390230739285,1,f,0,same,1.062701783488592,0.0332906405605819,0,0,0,0.3874695219928981,0,0,5.028531455611301
6,23,female,40,105,105,left,same,valid,anti,2,0.3934095660351886,1,f,1,same,0.9674715233904863,0.03185674794592125,0,0,0,0.3875015956655261,0,0,4.788379516212444
6,23,female,41,135,135,left,same,valid,anti,2,0.3374172739804635,1,f,1,same,1.1019365441661648,0.030422463771432928,0,0,0,0.38751731176489557,0,0,4.789813530085667
6,23,female,42,45,95,left,change,valid,clock,2,0.3213368178185192,1,f,0,same,1.8783580332692509,0.029000087944870023,0,0,0,0.38751185923865705,0,0,5.207377136988725
6,23,female,43,165,165,left,same,valid,anti,2,0.5534337752451393,1,j,0,change,1.2645972092050215,0.027648407432217803,0,0,0,0.3875064067160565,0,0,4.755569432763878
6,23,female,44,15,15,left,same,valid,anti,2,0.24140730291765067,1,j,0,change,1.2918588681459369,0.026354736917235,0,0,0,0.38741788338302285,0,0,4.796639128211609
6,23,female,45,165,165,left,same,valid,clock,2,0.27328179735741287,1,f,1,same,1.6983695669605368,0.025104171222085414,0,0,0,0.38753751817785087,0,0,4.838199230101964
6,23,female,46,45,355,left,change,valid,anti,2,0.20947764176526107,1,j,1,change,1.171658933702929,0.023883265074858828,0,0,0,0.3874743330452475,0,0,4.288847791824082
6,23,female,47,15,15,right,same,valid,clock,2,0.23347003132403188,1,j,0,change,2.6002879574261897,0.02259548537962558,0,0,0,0.3874515607367357,0,0,5.837185702070201
6,23,female,48,105,105,left,same,valid,clock,2,0.24139286976605945,1,j,0,change,1.9231328792975546,0.021311349484978037,0,0,0,0.3875096140836831,0,0,5.290120154390024
6,23,female,49,105,105,right,same,valid,anti,2,0.1534584078235639,1,j,0,change,1.2317101489425113,0.020017542537511535,0,0,0,0.38754906469876005,0,0,4.392526577847093
6,23,female,50,15,15,left,same,valid,clock,2,0.20143003673729254,1,j,0,change,1.382927569309686,0.018747669166593817,0,0,0,0.38739030002398067,0,0,4.535193157274989
6,23,female,51,135,135,right,same,valid,anti,2,0.45745748153785826,1,f,1,same,1.1513582237857918,0.01753897283689093,0,0,0,0.38744225937261945,0,0,4.4585617780612665
6,23,female,52,45,45,right,same,valid,anti,2,0.28124248273343255,1,j,0,change,1.0680317862934317,0.016378210150446104,0,0,0,0.38752308502625965,0,0,4.515865562563704
6,23,female,53,165,165,right,same,valid,clock,2,0.5373619789716031,1,f,1,same,2.8161893142078043,0.015253472523182099,0,0,0,0.3874971053501213,0,0,6.4461768503770145
6,23,female,54,135,85,left,change,valid,anti,2,0.35347078826089273,1,j,1,change,1.5945804475049954,0.01415392056112802,0,0,0,0.3873925451807736,0,0,5.08225004506312
6,23,female,55,15,65,right,change,valid,clock,2,1.0494309809855622,1,j,1,change,1.3805169121260406,0.012993876468349597,0,0,0,0.3874938979824947,0,0,5.098334991542288
6,23,female,56,15,325,right,change,valid,anti,1,0.6013797452196741,0,j,1,change,1.819924614042975,0.011837965619684199,0,0,0,0.3874647109423677,0,0,5.780459564401099
6,23,female,57,75,125,right,change,valid,clock,2,0.5614813802712888,1,f,0,same,1.771169746059968,0.014861771118700629,0,0,0,0.3874339202175179,0,0,5.255494380371601
6,23,female,58,165,115,right,change,valid,anti,2,0.32953709352113947,1,f,0,same,1.041066488080105,0.01374441146169153,0,0,0,0.38754746101585624,0,0,4.300875418801297
6,23,female,1,165,115,left,change,valid,anti,2,0.512238351002452,1,f,0,same,1.18428826276795,0.012637145422316753,0,0,0,0.387458616945878,0,0,4.3769576967497414
6,23,female,2,165,165,right,same,valid,clock,2,0.39345222401971114,1,j,0,change,1.00072582719622,0.011529709026708523,0,0,0,0.38747176715151,0,0,4.513805149876134
6,23,female,3,45,95,right,change,valid,clock,2,0.30554791132999526,1,j,1,change,1.0186097859332222,0.01041218876299782,0,0,0,0.3874085820170876,0,0,4.46846741090485
6,23,female,4,135,135,right,same,valid,clock,2,0.3934371493942308,1,j,0,change,0.9143681069672311,0.00928973665959587,0,0,0,0.3874355239004217,0,0,4.5416082123992965
6,23,female,5,75,165,left,change,catch,anti,2,0.24947960467216035,1,j,1,change,1.075326622238208,0,0,0,0,0.3874355239004217,0,0,5.971145241774138
6,23,female,6,105,55,left,change,valid,anti,1,0.24816458412169595,0,j,1,change,0.815358606103473,0.008215528927563276,0,0,0,0.3873777912904188,0,0,4.440584164201937
6,23,female,7,75,75,left,same,valid,clock,2,0.5454025277886103,1,j,0,change,1.5652923739708058,0.011245514692144132,0,0,0,0.3874865210382268,0,0,5.312792391610856
6,23,female,8,105,45,right,change,catch,anti,2,0.4254918978695059,1,f,0,same,1.0685802460830018,0,0,0,0,0.387450598527721,0,0,5.768505386131437
6,23,female,9,105,105,right,same,valid,clock,2,0.280402473264985,1,j,0,change,0.7987245583608455,0.010168501133655306,0,0,0,0.3874855588292121,0,0,4.5942702950960665
6,23,female,10,75,25,left,change,valid,anti,1,0.5214053271811281,0,j,1,change,1.1411446836918913,0.00909589279877454,0,0,0,0.38751923618474393,0,0,4.798535965170231
6,23,female,11,45,45,left,same,valid,anti,2,0.513471904425387,1,f,1,same,1.4920701053488301,0.012007656279133472,0,0,0,0.3874887661950197,0,0,5.256287562278885
6,23,female,12,165,15,left,same,catch,anti,2,0.3452830212881963,1,f,1,same,1.1284733381180558,0,0,0,0,0.38749229429959087,0,0,5.98668333214664
6,23,female,13,105,185,right,same,catch,anti,2,0.4242002910996234,1,f,1,same,1.1325909561237495,0,0,0,0,0.38747208788663556,0,0,6.548535163328779
6,23,female,14,45,45,right,same,valid,clock,2,0.4470678569850861,1,f,1,same,1.40321031797248,0.010982281430969965,0,0,0,0.3874788233588333,0,0,5.452394973157425
6,23,female,15,75,25,right,change,valid,anti,2,0.2654221440479887,1,f,0,same,1.5062043310990703,0.009941676424262913,0,0,0,0.3874618243135046,0,0,4.566224434876858
6,23,female,16,45,355,right,change,valid,anti,2,0.20145729935757117,1,j,1,change,0.7330149059180258,0.008917903987053277,0,0,0,0.38751185923865705,0,0,3.7139997087706433
6,23,female,17,45,355,left,change,valid,anti,2,0.26539263627091714,1,f,0,same,0.8840616943507484,0.007940563124460787,0,0,0,0.3875080103989603,0,0,4.183752953184012
6,23,female,18,45,95,left,change,valid,clock,2,0.2174517980820383,1,j,1,change,0.8523007407093246,0.007000975079464289,0,0,0,0.3874945394563838,0,0,4.129970216388756
6,23,female,19,135,85,right,change,valid,anti,2,0.3775039113843377,1,f,0,same,1.0154771503948723,0.006091264863894608,0,0,0,0.3874871625121159,0,0,4.618236704982337
6,23,female,20,75,75,right,same,valid,anti,2,0.20944011556821351,1,j,0,change,0.8127041890129476,0.0052042105440789355,0,0,0,0.3874467496862053,0,0,4.135766570381747
6,23,female,21,105,155,left,change,valid,clock,2,0.32149975207175885,1,f,0,same,1.0154428315654513,0.004333113245758968,0,0,0,0.3875327071255015,0,0,4.544521464022182
6,23,female,22,75,125,left,change,valid,clock,2,0.3534637320535694,1,j,1,change,0.8208772020971082,0.0034116575012502204,0,0,0,0.3874993505087332,0,0,4.211653198932254
6,23,female,23,165,165,left,same,valid,anti,2,0.2974217258088174,1,f,1,same,1.1685509948929393,0.0024928302479396147,0,0,0,0.38749806756095495,0,0,4.574543383170749
6,23,female,24,15,325,right,change,valid,anti,2,0.2814461505495274,1,j,1,change,0.7915586585768324,0.0015696115660884802,0,0,0,0.3874361653743108,0,0,4.122455675787933
6,23,female,25,15,15,left,same,valid,anti,2,0.2734505048701976,1,j,0,change,0.7281255953676009,0.0006351163323339848,0,0,0,0.3875237264983298,0,0,4.130668780962878
6,23,female,26,15,165,left,change,catch,clock,2,0.32934882106746954,1,f,0,same,2.3425349490771623,0,0,0,0,0.38744225937261945,0,0,7.421849932421537
6,23,female,27,15,65,right,change,valid,clock,2,0.3363004687234934,1,j,1,change,0.8509857201606792,0,0,0,0,0.38748363440754474,0,0,5.971450583130718
6,23,female,28,165,215,right,change,valid,clock,1,0.9443374252932699,0,f,0,same,2.0745834752597148,0,0,0,0,0.38749710535194026,0,0,7.5313898612548655
6,23,female,29,165,115,right,change,valid,anti,1,1.112434898464926,0,j,1,change,1.5176533490357542,0.0013310228960873305,0,0,0,0.387413393067618,0,0,6.118346076204034
6,23,female,30,45,135,right,change,catch,anti,2,0.5134911486293277,1,f,0,same,0.8309640511870384,0,0,0,0,0.38749004914279794,0,0,6.298954205853079
6,23,female,31,165,165,right,same,valid,anti,1,0.6236398357577855,0,j,0,change,1.5041163350579154,0.0036902232044009886,0,0,0,0.38740890275403217,0,0,5.362720835250002
6,23,female,32,45,45,right,same,valid,anti,2,0.6094254258259753,1,j,0,change,1.1492195513401384,0.0059178162802096534,0,0,0,0.3875227642893151,0,0,4.922661396321928
6,23,female,33,15,15,right,same,valid,anti,2,0.6574573532416252,1,f,1,same,0.9082837313999335,0.00512202080870322,0,0,0,0.3874259017993609,0,0,4.743403888996909
6,23,female,34,75,55,right,same,catch,clock,2,0.24947575583246362,1,j,0,change,0.9222996053013048,0,0,0,0,0.38744129716360476,0,0,5.721497891798208
6,23,female,35,165,165,left,same,valid,clock,2,0.3042851708669332,1,f,1,same,1.1990732633239531,0.004338961573370215,0,0,0,0.38749004914279794,0,0,4.288980256087598
6,23,female,36,105,105,left,same,valid,anti,2,0.3294662107073236,1,j,0,change,0.8502377621298365,0.0035095116321961495,0,0,0,0.38748010630479257,0,0,4.117540064828063
6,23,female,37,135,325,left,same,catch,anti,2,0.201445752836662,1,j,0,change,1.0936156714524259,0,0,0,0,0.3874926150365354,0,0,5.939970594858096
6,23,female,38,105,55,right,change,valid,anti,1,1.54421868855934,0,j,1,change,2.225551041721701,0.0026819363828090026,0,0,0,0.38746406947029755,0,0,7.13323595766451
6,23,female,39,135,135,right,same,valid,anti,1,0.841464971381356,0,f,1,same,1.4593870336411783,0.004844254835387418,0,0,0,0.38747048420373176,0,0,5.442693649605644
6,23,female,40,15,15,right,same,valid,clock,2,0.3694267985792976,1,f,1,same,1.2502003000827244,0.006942276899688127,0,0,0,0.3874823514615855,0,0,4.741077906308419
6,23,female,41,75,125,right,change,valid,clock,2,0.8094920107687358,1,j,1,change,1.1665816714357788,0.006173819505038647,0,0,0,0.3874813892507518,0,0,4.821600463399591
6,23,female,42,75,75,right,same,valid,clock,2,0.20942279578412126,1,j,0,change,1.308432617384824,0.005423430237762761,0,0,0,0.3875317449164868,0,0,4.871858945121858
6,23,female,43,165,215,left,change,valid,clock,2,0.4494676091198926,1,f,0,same,1.1103642222042254,0.004686263470307317,0,0,0,0.38747465378037305,0,0,4.379624622573829
6,23,female,44,105,105,right,same,valid,anti,1,0.9053884410350292,0,j,0,change,2.190559948579903,0.00390723480108246,0,0,0,0.3874489948429982,0,0,6.242416982111536
6,23,female,45,15,65,left,change,valid,clock,1,0.21746655197239306,0,j,1,change,0.8340097670752584,0.005923496499087466,0,0,0,0.3875551586970687,0,0,4.097328198980904
6,23,female,46,105,155,right,change,valid,clock,1,0.20947892470940133,0,j,1,change,0.8085188955628837,0.008092288612132681,0,0,0,0.38754970617264917,0,0,4.288988595244518
6,23,female,47,75,85,left,same,catch,anti,1,0.20145024315024784,0,j,0,change,0.5643166928693972,0,0,0,0,0.3874643902054231,0,0,5.378400691251954
6,23,female,48,75,75,left,same,valid,anti,1,0.17642476061701018,0,j,0,change,0.858046097564511,0.01035454042976347,0,0,0,0.38748042704173713,0,0,4.0941397552523995
6,23,female,49,15,15,left,same,valid,clock,2,0.2575426050625538,1,j,0,change,1.017355063888317,0.012509294053751452,0,0,0,0.38751923618474393,0,0,4.517476943839938
6,23,female,50,45,45,left,same,valid,clock,2,0.17751526546453533,1,j,0,change,1.0020854301510553,0.011743135520746961,0,0,0,0.3874403349509521,0,0,4.079978587615187
6,23,female,51,135,185,right,change,valid,clock,2,0.4574379165969731,1,f,0,same,0.9840048598034628,0.010966964568010718,0,0,0,0.38750384082231903,0,0,4.551240256820165
6,23,female,52,135,135,left,same,valid,anti,2,0.28151671262821765,1,j,0,change,1.0888042999249592,0.010175993278189743,0,0,0,0.38743263727155863,0,0,4.5461953889607685
6,23,female,53,135,185,left,change,valid,clock,2,0.2334610506950412,1,j,1,change,0.7627318044451386,0.009381008541031799,0,0,0,0.38744450452941237,0,0,3.925398563484123
6,23,female,54,105,105,left,same,valid,clock,1,0.297406009707629,0,j,0,change,1.6742270726172137,0.008619542918484713,0,0,0,0.3874522022106248,0,0,5.160852672153851
6,23,female,55,15,325,left,change,valid,anti,2,0.41986040255142143,1,f,0,same,0.9941747797020071,0.010779682404046309,0,0,0,0.3875064067160565,0,0,4.139689180461573
6,23,female,56,135,85,left,change,valid,anti,2,0.28948766157918726,1,j,1,change,1.1162455714274984,0.01000601579609256,0,0,0,0.38739062076092523,0,0,4.540590194052129
6,23,female,57,135,135,left,same,valid,clock,2,0.4415030749023572,1,f,1,same,1.0514538674760843,0.00923734637318041,0,0,0,0.3874493155799428,0,0,4.511815299269074
6,23,female,58,15,65,right,same,catch,clock,2,0.3614388505829993,1,f,1,same,0.9337986581649602,0,0,0,0,0.387450598527721,0,0,6.002507519671781
6,23,female,1,165,115,left,change,valid,anti,2,0.584131165922372,1,f,0,same,0.8337515740149684,0.008502234763195837,0,0,0,0.3873691314001917,0,0,4.193087674664639
6,23,female,2,75,75,right,same,valid,anti,2,0.2254535377578577,1,j,0,change,0.7716707368144853,0.007795731476221979,0,0,0,0.3875654222738376,0,0,4.089455395464029
6,23,female,3,75,85,left,same,catch,anti,2,0.36145456668054976,1,f,1,same,1.1127373531908233,0,0,0,0,0.3875121799774206,0,0,6.064972599462635
6,23,female,4,165,215,right,change,valid,clock,2,0.21640812079749594,1,j,1,change,0.8298033049995865,0.007113275487554027,0,0,0,0.3874319957976695,0,0,4.64346521385778
6,23,female,5,15,65,left,change,valid,clock,2,0.2335136515175691,1,j,1,change,1.1154799728774378,0.006450659749326848,0,0,0,0.38753366933815414,0,0,4.520845000131885
6,23,female,6,75,125,right,change,valid,clock,2,0.18544483937694167,1,j,1,change,0.7586427320093208,0.0058039742254829,0,0,0,0.38750544450522284,0,0,3.987674729347418
6,23,female,7,75,25,right,change,valid,anti,1,0.22546476354182232,0,j,1,change,0.598163397397002,0.005169555482330945,0,0,0,0.387434561689588,0,0,4.024419290133665
6,23,female,8,45,135,right,change,catch,anti,2,0.30541288117092336,1,j,1,change,0.7364756551214668,0,0,0,0,0.38753687670396175,0,0,5.581167237898626
6,23,female,9,135,85,left,change,valid,anti,2,0.3921615794606623,1,f,0,same,0.9519687140582391,0.007047444063437103,0,0,0,0.38747786114799965,0,0,4.42821463188011
6,23,female,10,15,65,right,same,catch,clock,2,0.33729571476396814,1,f,1,same,1.374770272324895,0,0,0,0,0.38744386305552325,0,0,6.563946883434255
6,23,female,11,75,75,right,same,valid,clock,2,0.3044548405905516,1,f,1,same,1.023679350520979,0.006405307974344965,0,0,0,0.3874711256776209,0,0,4.659263100973476
6,23,female,12,45,45,left,same,valid,anti,2,0.3131442397934734,1,f,1,same,0.9926519217588066,0.005778210195489686,0,0,0,0.38747689893716597,0,0,4.5293778798150015
6,23,female,13,165,165,right,same,valid,anti,1,0.3294444006114645,0,j,0,change,1.1371787741572916,0.0051627025045830055,0,0,0,0.38751570808017277,0,0,4.756167927484057
6,23,female,14,75,75,left,same,valid,anti,2,0.4091615878005541,1,f,1,same,1.1109726597605913,0.00698526167322483,0,0,0,0.3874589376810036,0,0,4.404954804989757
6,23,female,15,165,165,right,same,valid,clock,2,0.2814878463250352,1,f,1,same,1.058000745391837,0.0063624375299422,0,0,0,0.3874303921129467,0,0,4.492413614376346
6,23,female,16,15,15,right,same,valid,clock,2,0.233441485755975,1,j,0,change,1.1349339378575678,0.005753832546249227,0,0,0,0.387487803986005,0,0,4.3663563859645365
6,23,female,17,135,325,left,same,catch,anti,2,0.24943502226960845,1,f,1,same,0.9759277469984227,0,0,0,0,0.3874573339962808,0,0,5.721762178853169
6,23,female,18,45,355,left,change,valid,anti,2,0.27249727534217527,1,f,0,same,0.9832969938634051,0.005156195344911407,0,0,0,0.38745508883948787,0,0,4.222766405522634
6,23,female,19,45,95,left,change,valid,clock,2,0.2334812571098155,1,j,1,change,0.945358651006245,0.004566444545846926,0,0,0,0.3874255810624163,0,0,4.481186866985809
6,23,female,20,75,165,left,change,catch,anti,2,0.16138028405839577,1,j,1,change,1.1559287220370607,0,0,0,0,0.3874935772473691,0,0,6.127412341049421
6,23,female,21,15,15,left,same,valid,clock,2,0.27228077805739304,1,j,0,change,1.2293229055412667,0.003941000106274961,0,0,0,0.38743969347888196,0,0,4.846571420690452
6,23,female,22,45,45,left,same,valid,clock,1,0.817442111832861,0,f,1,same,1.1619944948761258,0.003317197123450688,0,0,0,0.38755291354027577,0,0,4.881300792669208
6,23,female,23,15,15,left,same,valid,anti,2,0.47345390468035475,1,f,1,same,1.29331276769517,0.004944007498714598,0,0,0,0.3874461082123162,0,0,4.893461204648702
6,23,female,24,15,165,left,change,catch,clock,2,0.6413249377292232,1,j,1,change,1.648220456459967,0,0,0,0,0.38741660043342563,0,0,6.720026351729757
6,23,female,25,165,215,left,change,valid,clock,1,1.040162652005165,0,j,1,change,1.4962800955272542,0.004331597438078982,0,0,0,0.3874701634667872,0,0,5.867454588491455
6,23,female,26,45,355,right,change,valid,anti,2,0.44940089588089904,1,f,0,same,1.784104095742805,0.00591507552083792,0,0,0,0.38758627015886304,0,0,5.753263015014454
6,23,female,27,105,105,right,same,valid,clock,1,1.3454491629090626,0,j,0,change,1.1191979529303353,0.005344325692720142,0,0,0,0.3875163495540619,0,0,5.32350403583041
6,23,female,28,15,15,right,same,valid,anti,2,0.5852800448519702,1,j,0,change,1.1345987679851532,0.0070330890305559945,0,0,0,0.3874733708325948,0,0,5.130399041381679
6,23,female,29,105,155,left,change,valid,clock,2,0.3934483751800144,1,f,0,same,1.3957339450425934,0.006454169569410806,0,0,0,0.3875558001691388,0,0,4.836952205738271
6,23,female,30,45,45,right,same,valid,clock,2,0.3454125989228487,1,f,1,same,1.1947199038295366,0.005888511945991937,0,0,0,0.3874977468240104,0,0,4.423639643313436
6,23,female,31,135,85,right,change,valid,anti,2,0.42541299663753307,1,f,0,same,1.2443628917881142,0.005333282050698107,0,0,0,0.3874271847453201,0,0,4.679329673084794
6,23,female,32,165,165,left,same,valid,clock,2,0.28136789078962465,1,f,1,same,1.1116664132841834,0.004785791547769758,0,0,0,0.3874708049406763,0,0,4.43041135767271
6,23,female,33,135,135,left,same,valid,clock,2,0.2573937832239608,1,f,1,same,0.7812761600871454,0.004205908202658648,0,0,0,0.38746182431168563,0,0,4.00694587439466
6,23,female,34,45,45,right,same,valid,anti,2,0.5054226957163337,1,f,1,same,1.1352399206880364,0.0036284422256023796,0,0,0,0.38752404723527434,0,0,4.772331454458254
6,23,female,35,75,75,left,same,valid,clock,1,0.35343999753604294,0,j,0,change,1.2240560878726683,0.0030504617412269175,0,0,0,0.3874903698797425,0,0,4.877446499511279
6,23,female,36,105,105,left,same,valid,clock,2,0.4894548181400751,1,f,1,same,1.2288895902329386,0.004562442111060272,0,0,0,0.38742365664256795,0,0,4.665269216780871
6,23,female,37,135,185,left,change,valid,clock,2,0.40937648140243255,1,j,1,change,1.122529124497305,0.003997332187547442,0,0,0,0.3874605413639074,0,0,4.59958073296184
6,23,female,38,135,135,right,same,valid,clock,2,0.17724488440944697,1,j,0,change,2.3942688197093958,0.003433414434397708,0,0,0,0.3874675975730497,0,0,5.820398342177214
6,23,female,39,165,165,left,same,valid,anti,2,0.7694589363982232,1,f,1,same,1.189383165556137,0.0028679058427620863,0,0,0,0.38749967124385876,0,0,5.184382559362348
6,23,female,40,15,325,left,change,valid,anti,3,0.641339691617759,1,f,0,same,1.0513537976185034,0.0022980602450924925,0,0,0,0.3875211606045923,0,0,4.892069848760002
6,23,female,41,105,155,right,change,valid,clock,2,0.8092614010674879,1,f,0,same,1.9670491131309973,0.00172114244977839,0,0,0,0.38744963631506835,0,0,6.151837083707505
6,23,female,42,105,105,left,same,valid,anti,2,0.44145496439523413,1,f,1,same,1.0259078292474442,0.0011344032260618975,0,0,0,0.38754649880502257,0,0,4.380395352909545
6,23,female,43,105,45,right,change,catch,anti,2,0.28939400645685964,1,f,0,same,0.9782370513785281,0,0,0,0,0.3874137138045626,0,0,5.924564006541914
6,23,female,44,15,325,right,change,valid,anti,1,0.5119849689945113,0,j,1,change,1.0960754013540281,0.0005350547719890075,0,0,0,0.38749069061668706,0,0,4.545728075561783
6,23,female,45,135,135,left,same,valid,anti,2,0.48144441857220954,1,f,1,same,0.9120655380593234,0.0021339818971934377,0,0,0,0.38746182431168563,0,0,4.5246790868750395
6,23,female,46,105,105,right,same,valid,anti,1,0.8894026022007893,0,j,0,change,1.1819927500673657,0.001567021797177548,0,0,0,0.3874573339980998,0,0,5.37552656950902
6,23,female,47,135,185,right,change,valid,clock,2,0.529446838208969,1,j,1,change,0.7445729743394622,0.003068722888352804,0,0,0,0.3874085820170876,0,0,4.567850570045266
6,23,female,48,135,135,right,same,valid,anti,2,0.4974466149760701,1,j,0,change,0.7282436264813441,0.0025255091309154265,0,0,0,0.38745348515840305,0,0,4.275883292888466
6,23,female,49,165,115,right,change,valid,anti,2,0.5214194395957747,1,f,0,same,0.921824594221107,0.0019763155695640133,0,0,0,0.3874829929354746,0,0,4.5039601362750545
6,23,female,50,15,65,right,change,valid,clock,2,0.2414473950084357,1,f,0,same,1.0954284753916,0.0014186210879041927,0,0,0,0.38754072554547747,0,0,4.362400098529179
6,23,female,51,75,55,right,same,catch,clock,2,0.4174442928415374,1,f,1,same,0.8366590523764899,0,0,0,0,0.387450598525902,0,0,5.815254687406195
6,23,female,52,75,25,left,change,valid,anti,1,0.27240426169373677,0,j,1,change,1.0995685449652228,0.0008498751465161325,0,0,0,0.38746631462709047,0,0,4.460341225380034
6,23,female,53,75,125,left,change,valid,clock,2,0.34546070943179075,1,f,0,same,0.8301314186628588,0.0023645149439545654,0,0,0,0.38751827397391025,0,0,4.293488210680152
6,23,female,54,105,185,right,same,catch,anti,1,0.2414627903708606,0,j,0,change,0.8851316720447358,0,0,0,0,0.3874355239004217,0,0,5.643603130647534
6,23,female,55,105,55,left,change,valid,anti,1,0.20825082381270477,0,j,1,change,1.590221956224923,0.0018245773900346096,0,0,0,0.38743808979597816,0,0,4.977758832928885
6,23,female,56,45,95,right,change,valid,clock,1,0.22548785658727866,0,j,1,change,0.3847115069438587,0.0032525245127701385,0,0,0,0.3874489948429982,0,0,3.495741899314453
6,23,female,57,165,15,left,same,catch,anti,2,0.40945794852996187,1,f,1,same,1.1077094843767554,0,0,0,0,0.387484917355323,0,0,5.971365908637381
6,23,female,58,105,55,right,change,valid,anti,2,0.30437369420178584,1,f,0,same,0.89898204579913,0.0046020769502732595,0,0,0,0.3875282168119156,0,0,4.760202795412624
6,23,female,1,135,135,right,same,valid,anti,1,0.2642492098657385,0,j,0,change,1.4335337296361104,0.004096257680825666,0,0,0,0.38749325651042454,0,0,4.705196127295494
6,23,female,2,105,45,right,change,catch,anti,1,0.8014392739551113,0,j,1,change,0.6965734413333848,0,0,0,0,0.3874871625121159,0,0,5.877503590647393
6,23,female,3,165,165,left,same,valid,clock,2,0.4719393858922558,1,f,1,same,0.867974823449913,0.0054091390575696785,0,0,0,0.387495822404162,0,0,4.686795782439731
6,23,female,4,165,15,left,same,catch,anti,2,0.4654556931072875,1,j,0,change,0.6035091162993922,0,0,0,0,0.3874554095782514,0,0,5.784075870911693
6,23,female,5,105,185,right,same,catch,anti,2,1.0724656507009058,1,f,1,same,0.8371651749203011,0,0,0,0,0.3875105762926978,0,0,6.642147306676634
6,23,female,6,15,15,right,same,valid,clock,2,0.6321663007056486,1,f,1,same,0.9513403908240434,0.0049398080768331964,0,0,0,0.3874977468258294,0,0,4.769367847169633
6,23,female,7,75,75,left,same,valid,clock,2,0.4974225597234181,1,f,1,same,1.1932323269265908,0.004442770103096683,0,0,0,0.38745669252421067,0,0,4.865824283746406
6,23,female,8,45,45,right,same,valid,anti,2,0.35346565647341777,1,f,1,same,1.2760003617913753,0.003948166725601832,0,0,0,0.3875237264983298,0,0,4.613408334407723
6,23,female,9,135,135,left,same,valid,clock,2,0.5214374008519371,1,j,0,change,1.3755336257163435,0.0034537939932385298,0,0,0,0.3875179532387847,0,0,4.9144043502165005
6,23,female,10,135,135,right,same,valid,clock,2,0.28144871644326486,1,f,1,same,1.4566591678412806,0.0029574863025456644,0,0,0,0.3874239773776935,0,0,4.750648690014714
6,23,female,11,75,165,left,change,catch,anti,2,0.5934241916311294,1,f,0,same,1.4476089398303884,0,0,0,0,0.38743488242835156,0,0,6.516943879412793
6,23,female,12,75,125,left,change,valid,clock,2,0.25644857211227645,1,f,0,same,0.9510712927167333,0.0024570980336200976,0,0,0,0.38749742608706583,0,0,4.549264839364696
6,23,female,13,15,325,left,change,valid,anti,2,0.2334988976290333,1,f,0,same,0.8769012470875168,0.0019504858752195653,0,0,0,0.38744065568789665,0,0,4.352069810271132
6,23,female,14,105,105,right,same,valid,anti,1,0.4653690941941022,0,j,0,change,1.1424750996047806,0.0014354916043425314,0,0,0,0.387500954191637,0,0,4.878637074214566
6,23,female,15,75,55,right,same,catch,clock,2,0.29635078590217745,1,f,1,same,0.999460200100657,0,0,0,0,0.3874541266304732,0,0,5.9712918184559385
6,23,female,16,45,135,right,change,catch,anti,2,0.3919457236497692,1,j,1,change,1.0576998943488434,0,0,0,0,0.38746663536221604,0,0,6.361449114157949
6,23,female,17,105,105,right,same,valid,clock,2,0.3674921146885026,1,f,1,same,0.9077468181312724,0.0028023279522551015,0,0,0,0.3874977468240104,0,0,4.883803822027403
6,23,female,18,45,45,right,same,valid,clock,2,0.4174426891586336,1,j,0,change,1.5259411858660314,0.002310079457877978,0,0,0,0.3874695219928981,0,0,5.1273924553734105
6,23,female,19,105,105,left,same,valid,anti,2,0.3374538379666774,1,f,1,same,0.862112397691817,0.0018110142777282845,0,0,0,0.3874983882978995,0,0,4.009169862809358
6,23,female,20,45,355,left,change,valid,anti,2,1.0332318522341666,1,j,1,change,0.7250096381376352,0.0013030446160050002,0,0,0,0.3874987090330251,0,0,4.885865838396057
6,23,female,21,15,15,left,same,valid,anti,2,0.3374506305990508,1,j,0,change,0.9626912633248139,0.0007840462059086062,0,0,0,0.3874598998900183,0,0,4.354842258475401
6,23,female,22,15,65,right,change,valid,clock,2,0.5294808363014454,1,j,1,change,0.7445886904388317,0.00025184223829233243,0,0,0,0.38754746101585624,0,0,4.489491061387525
6,23,female,23,135,185,right,change,valid,clock,1,0.2495033391896868,0,j,1,change,0.6472598499858577,0,0,0,0,0.3873883756023133,0,0,5.472172561487241
6,23,female,24,75,125,right,change,valid,clock,2,0.2724119593749492,1,j,1,change,1.2336708125094447,0.0011747159273715058,0,0,0,0.3875218020784814,0,0,4.549622140071733
6,23,female,25,165,165,left,same,valid,anti,2,0.5293525416145712,1,j,0,change,1.297680239602414,0.0006618554451954806,0,0,0,0.3875429707022704,0,0,4.776622270290318
6,23,female,26,45,95,right,change,valid,clock,2,0.2094709062930633,1,j,1,change,0.7435517486246681,0.00013542362125396057,0,0,0,0.38753623523007263,0,0,4.082143881209049
6,23,female,27,135,185,left,change,valid,clock,1,0.20942953125631902,0,j,1,change,0.7149609567186417,0,0,0,0,0.3874515607367357,0,0,5.721733312549986
6,23,female,28,45,45,left,same,valid,anti,2,0.2403071759708837,1,j,0,change,1.0820040399994468,0.0010502253599544153,0,0,0,0.38748042704173713,0,0,4.178580432109811
6,23,female,29,165,165,right,same,valid,clock,1,0.2254753478555358,0,j,0,change,0.4601529529263644,0.0005431029733893311,0,0,0,0.3874457874753716,0,0,3.652470538729176
6,23,female,30,15,15,right,same,valid,anti,1,0.20946256713796174,0,j,0,change,0.31072331903487793,0.0018981510015683156,0,0,0,0.38752083986764774,0,0,3.496767615342833
6,23,female,31,135,135,left,same,valid,anti,2,0.5051179958318244,1,f,1,same,1.5968727528397721,0.003144636463270678,0,0,0,0.3874865210400458,0,0,5.185338996261635
6,23,female,32,15,325,right,change,valid,anti,2,0.31350346491854,1,f,0,same,1.0267584230277862,0.0026920175505056876,0,0,0,0.3874451460033015,0,0,4.260890454939727
6,23,female,33,15,65,right,same,catch,clock,1,0.8013574860924564,0,j,0,change,2.377282603049025,0,0,0,0,0.38742942990393203,0,0,7.718514078096632
6,23,female,34,45,355,right,change,valid,anti,1,0.24028151703350886,0,j,1,change,1.1191652377838182,0.00223422970388798,0,0,0,0.3874759367281513,0,0,4.8692802218993165
6,23,female,35,75,75,left,same,valid,anti,2,0.3055119888176705,1,j,0,change,1.0567181192509452,0.003442910854969672,0,0,0,0.3874621450486302,0,0,4.296643618527014
6,23,female,36,45,95,left,change,valid,clock,2,0.4973895238399564,1,j,1,change,2.496017732890323,0.0030010090814259205,0,0,0,0.3874724086235801,0,0,6.101595601032386
6,23,female,37,135,85,right,change,valid,anti,1,0.40937327403480595,0,f,0,same,1.6247550373300328,0.002555152231679403,0,0,0,0.387546178069897,0,0,4.92068950697103
6,23,female,38,15,15,left,same,valid,clock,2,0.705471960875002,1,j,0,change,1.0350792957378872,0.0037294682493136944,0,0,0,0.3874570132611552,0,0,4.485650880646062
6,23,female,39,165,115,right,change,valid,anti,1,0.20945069987828902,0,j,1,change,0.7181901340100012,0.0032972421956077858,0,0,0,0.38749646387805115,0,0,4.007102393914465
6,23,female,40,165,215,right,change,valid,clock,2,0.5294423478953831,1,j,1,change,0.8514495054550935,0.004428664244593705,0,0,0,0.3875567623817915,0,0,4.660566895736338
6,23,female,41,165,215,left,change,valid,clock,2,0.7774626004938909,1,f,0,same,1.1647441707718826,0.004005288768110404,0,0,0,0.3874355239004217,0,0,5.0107664901988755
6,23,female,42,15,165,left,change,catch,clock,1,0.16150857874526992,0,j,1,change,0.4172913014281221,0,0,0,0,0.38745348515658407,0,0,5.440775644023233
6,23,female,43,75,25,right,change,valid,anti,2,0.2323538675391319,1,f,0,same,1.2208153640585806,0.0035817809327914896,0,0,0,0.38744450452941237,0,0,4.58010688230388
6,23,female,44,135,325,left,same,catch,anti,2,0.6254093402385479,1,j,0,change,1.0372641542708152,0,0,0,0,0.3875269338659564,0,0,6.095906693839424
6,23,female,45,45,45,left,same,valid,clock,2,0.8482286673206545,1,j,0,change,1.083121486730306,0.003156516099946216,0,0,0,0.3874441837924678,0,0,5.386885460426129
6,23,female,46,165,165,right,same,valid,anti,1,0.18542655738565372,0,j,0,change,0.4801733389522269,0.002727880691969775,0,0,0,0.3874329580066842,0,0,4.051575105955635
6,23,female,47,105,55,left,change,valid,anti,2,0.4734227932185604,1,f,0,same,0.9925249100178917,0.0038555924174099587,0,0,0,0.3874897284058534,0,0,4.577969172069061
6,23,female,48,105,155,right,change,valid,clock,1,0.17746683421864873,0,j,1,change,0.3212011461855582,0.0034391633276933398,0,0,0,0.38740922348915774,0,0,3.7180996862553
6,23,female,49,75,75,right,same,valid,clock,2,0.2574710807748488,1,j,0,change,1.0773812616625946,0.004528209560694274,0,0,0,0.3874829929354746,0,0,4.436066587508321
6,23,female,50,165,115,left,change,valid,anti,2,0.2973546918328793,1,f,0,same,0.8716270524746506,0.004119557654070682,0,0,0,0.387508972609794,0,0,4.196317814166832
6,23,female,51,75,85,left,same,catch,anti,2,0.2574396485761099,1,f,1,same,1.5831942939657893,0,0,0,0,0.3874727293605247,0,0,6.6576424183294876
6,23,female,52,135,85,left,change,valid,anti,1,0.1364689837973856,0,j,1,change,0.3077779937411833,0.0037110919611352267,0,0,0,0.38745925841794815,0,0,3.9521646841913025
6,23,female,53,75,25,left,change,valid,anti,2,0.9694232063266099,1,j,1,change,1.7190994226111798,0.004776867895767534,0,0,0,0.3875487439618155,0,0,5.65171969406947
6,23,female,54,75,75,right,same,valid,anti,2,0.521410458968603,1,j,0,change,1.2127738530289207,0.004374480951837845,0,0,0,0.38751346292337985,0,0,4.859583709398066
6,23,female,55,105,155,left,change,valid,clock,2,0.409376160665488,1,f,0,same,1.0279579783582449,0.003973172337894071,0,0,0,0.38750768966383475,0,0,4.550413076822224
6,23,female,56,105,105,left,same,valid,clock,2,0.47342952869075816,1,j,0,change,1.205294593468352,0.003571452615607873,0,0,0,0.3874881247229496,0,0,4.817805827273332
6,23,female,57,105,55,right,change,valid,anti,2,0.44142256998566154,1,f,0,same,1.2146588227296888,0.003167850131101435,0,0,0,0.387484917355323,0,0,4.852172125285506
6,23,female,58,15,65,left,change,valid,clock,2,0.30545329399865295,1,f,0,same,0.9463516518917459,0.002760900885579065,0,0,0,0.3874643902054231,0,0,4.199496315055512
6,23,female,1,15,15,right,same,valid,clock,1,0.23029570001199318,0,j,0,change,0.616437692722684,0.0023491386881088205,0,0,0,0.3874483533691091,0,0,3.889243837524191
6,23,female,2,105,55,left,change,valid,anti,2,0.313283118792242,1,j,1,change,0.8938794453315495,0.003436366106465416,0,0,0,0.38745348515658407,0,0,4.349380432879116
6,23,female,3,45,355,right,change,valid,anti,2,0.6735041320498567,1,j,1,change,1.0315447770899482,0.00303857363243476,0,0,0,0.38753687670396175,0,0,4.796073990111836
6,23,female,4,165,115,right,change,valid,anti,2,0.35341626302033546,1,f,0,same,0.7059527452183829,0.002636971213583472,0,0,0,0.3874813892525708,0,0,4.453433197917548
6,23,female,5,105,55,right,change,valid,anti,2,0.5694629135323339,1,j,1,change,1.205921313017825,0.0022301343775861793,0,0,0,0.38748203072464094,0,0,4.902416173854363
6,23,female,6,165,215,left,change,valid,clock,1,0.801376730294578,0,j,1,change,0.8731242514804762,0.0018166236951669967,0,0,0,0.3874669560991606,0,0,4.7385944418892905
6,23,female,7,135,185,left,change,valid,clock,2,0.5454134328392684,1,f,0,same,1.250458813876321,0.00291320024745928,0,0,0,0.3874307128498913,0,0,4.666411039499508
6,23,female,8,15,65,right,same,catch,clock,2,0.4813956665893784,1,f,1,same,0.9609499836751638,0,0,0,0,0.3875031993484299,0,0,6.064818004364497
6,23,female,9,45,45,left,same,valid,anti,2,0.16041679095178552,1,j,0,change,1.836542304210525,0.002516607867381504,0,0,0,0.38751506660628365,0,0,4.858997081937559
6,23,female,10,75,165,left,change,catch,anti,2,0.2653801275373553,1,f,0,same,1.6952321203716565,0,0,0,0,0.38755964901247353,0,0,6.532848571854629
6,23,female,11,105,105,left,same,valid,anti,1,0.2323166620808479,0,j,0,change,3.112239249065169,0.0021143850664523955,0,0,0,0.38743263726973964,0,0,6.5482073704024515
6,23,female,12,15,15,left,same,valid,clock,2,0.9054201939688937,1,j,0,change,0.7869525585483643,0.0031787359315946784,0,0,0,0.38745829620893346,0,0,4.63421516687049
6,23,female,13,135,135,left,same,valid,anti,2,0.5934116828993865,1,f,1,same,0.8316177126216644,0.0027914918799775146,0,0,0,0.38750384082231903,0,0,4.288179697236046
6,23,female,14,165,115,left,change,valid,anti,2,0.305493386089438,1,f,0,same,0.8295409423626552,0.0023995948918760224,0,0,0,0.38754810248974536,0,0,4.036942134605852
6,23,female,15,105,105,right,same,valid,anti,2,0.4094675706310227,1,f,1,same,0.9764088520769292,0.0020016947934229923,0,0,0,0.3874467496862053,0,0,4.618733205425087
6,23,female,16,135,85,right,change,valid,anti,2,0.25742970573810453,1,f,0,same,1.147798046200478,0.0015964211304652642,0,0,0,0.3874441837924678,0,0,4.5520520414575
6,23,female,17,105,45,right,change,catch,anti,1,0.8255221112685831,0,j,1,change,1.0639346954376379,0,0,0,0,0.3874403349527711,0,0,6.3767373506252625
6,23,female,18,15,325,right,change,valid,anti,1,0.40048277290952683,0,j,1,change,0.5511263952848822,0.0011823747839134202,0,0,0,0.38745508884130686,0,0,4.565459477802506
6,23,female,19,135,135,right,same,valid,anti,2,0.2735239535813889,1,j,0,change,1.0348666472946206,0.0022857319662337727,0,0,0,0.38753783891479543,0,0,4.352850804183618
6,23,female,20,165,165,left,same,valid,anti,1,0.4415030749023572,0,j,0,change,0.5638856227215001,0.0018918815578886083,0,0,0,0.3874749745173176,0,0,4.063213679293767
6,23,female,21,15,325,left,change,valid,anti,2,0.34539527914057544,1,f,0,same,1.1907180717826122,0.002936174827006255,0,0,0,0.38751827397572924,0,0,4.6301376409555814
6,23,female,22,15,65,right,change,valid,clock,2,0.40104213774793607,1,f,0,same,0.9924139351132908,0.0025582038132197504,0,0,0,0.387487803986005,0,0,4.403236297646799
6,23,female,23,75,125,left,change,valid,clock,2,0.27348642738434137,1,f,0,same,0.8935625574522419,0.0021748330070873734,0,0,0,0.3874335994805733,0,0,4.323070399786957
6,23,female,24,135,185,right,change,valid,clock,2,0.21739983873339952,1,f,0,same,1.1773998002463486,0.0017847760891367415,0,0,0,0.3873941488636774,0,0,4.712651010866466
6,23,female,25,75,25,right,change,valid,anti,2,0.257461458671969,1,f,0,same,1.12468704114508,0.0013867220933529434,0,0,0,0.3874611828396155,0,0,4.392090375909902
6,23,female,26,165,15,left,same,catch,anti,2,0.20147943019219383,1,f,1,same,0.9134677989950433,0,0,0,0,0.3874509192628466,0,0,5.565677578772011
6,23,female,27,165,165,left,same,valid,clock,1,0.4164525749074528,0,j,0,change,0.19046276535300422,0.0009793276633819903,0,0,0,0.38741884559203754,0,0,3.5568701484553458
6,23,female,28,105,155,left,change,valid,clock,2,0.38545337097639276,1,f,0,same,0.9256262865546887,0.0020667249178089597,0,0,0,0.38745284368269495,0,0,4.134563807683662
6,23,female,29,75,75,left,same,valid,clock,2,0.4814546821471595,1,j,0,change,1.9786581786902389,0.001680220742656502,0,0,0,0.3875266131290118,0,0,5.7511333231977915
6,23,female,30,105,155,right,change,valid,clock,2,0.5613934984103253,1,f,0,same,1.7679084950977995,0.0012854325173172199,0,0,0,0.387484917355323,0,0,5.097283616576533
6,23,female,31,15,15,right,same,valid,anti,2,0.6573572833858634,1,j,0,change,1.4131544392203068,0.0008810419589341256,0,0,0,0.38750544450704183,0,0,5.042554706458759
6,23,female,32,135,135,left,same,valid,clock,2,0.4413276319173747,1,f,1,same,1.0142535398117616,0.00046568915724737314,0,0,0,0.38749806756095495,0,0,4.5143462327214365
6,23,female,33,45,45,right,same,valid,clock,2,0.3214833944985003,1,j,0,change,1.213056742817571,3.796470609451763e-05,0,0,0,0.38753302786244603,0,0,4.692789389517202
6,23,female,34,105,185,right,same,catch,anti,2,0.6894588594223023,1,j,0,change,1.5254850982510106,0,0,0,0,0.3874711256758019,0,0,6.673361724948336
6,23,female,35,105,105,left,same,valid,clock,2,0.7762386691738357,1,j,0,change,0.6945499133689736,0,0,0,0,0.38751185924047604,0,0,6.298960299851387
6,23,female,36,15,165,left,change,catch,clock,1,0.5442825151658326,0,j,1,change,1.24289520055936,0,0,0,0,0.3874275054822647,0,0,6.688815140825682
6,23,female,37,15,65,left,change,valid,clock,2,0.6161830277669651,1,f,0,same,1.1520911071893352,0,0,0,0,0.3874570132611552,0,0,6.782593425794403
6,23,female,38,15,15,left,same,valid,anti,1,0.16835213812737493,0,j,0,change,0.8605334108233365,0,0,0,0,0.38746984272984264,0,0,6.142894943970532
6,23,female,39,75,75,right,same,valid,anti,2,0.29644315807490784,1,f,1,same,0.8092758342190791,0,0,0,0,0.3873935073897883,0,0,5.596794172342925
6,23,female,40,135,325,left,same,catch,anti,1,0.19226113613876805,0,j,0,change,0.4262991921914363,0,0,0,0,0.3874951809302729,0,0,4.972633139415848
6,23,female,41,135,85,left,change,valid,anti,1,0.19234613136904954,0,j,1,change,0.46055579824678716,0,0,0,0,0.38745925841794815,0,0,5.300371541414279
6,23,female,42,165,215,right,change,valid,clock,1,0.2079724243394594,0,j,1,change,0.4612277416727011,0.0006903343157484421,0,0,0,0.3874461082123162,0,0,3.7946399762386136
6,23,female,43,75,55,right,same,catch,clock,2,0.33745095133781433,1,f,1,same,1.5061915016322018,0,0,0,0,0.38741948706592666,0,0,6.501721073236695
6,23,female,44,135,135,right,same,valid,clock,2,0.6561250129107066,1,j,0,change,1.0452165004935523,0.001757586921696308,0,0,0,0.38752404723527434,0,0,5.143746179222944
6,23,female,45,165,165,right,same,valid,clock,1,0.3613942681786284,0,j,0,change,1.3652328452353686,0.0013804332434440014,0,0,0,0.3874865210382268,0,0,4.7780582085833885
6,23,female,46,75,25,left,change,valid,anti,2,0.5135152038819797,1,f,0,same,1.0067155854321754,0.0023848580615016823,0,0,0,0.38748427588143386,0,0,4.619099166020533
6,23,female,47,45,45,left,same,valid,clock,2,0.2814169635075814,1,f,1,same,0.7529259207221912,0.0020254655757671602,0,0,0,0.3874791440939589,0,0,4.176189019130106
6,23,female,48,45,355,left,change,valid,anti,1,1.1294724330000463,0,j,1,change,1.0333601469246787,0.0016591341012320293,0,0,0,0.38745669252421067,0,0,5.2812476145209075
6,23,female,49,165,165,right,same,valid,anti,2,0.3451425386065239,1,f,1,same,0.8362793001015234,0.002632917109192001,0,0,0,0.38756991258560447,0,0,4.815968647344562
6,23,female,50,45,95,right,change,valid,clock,1,0.24150448614454945,0,j,1,change,0.35696585629375477,0.0022826588745639143,0,0,0,0.38753848038868455,0,0,3.8180021181451593
6,23,female,51,45,95,left,change,valid,clock,2,0.3454491629090626,1,f,0,same,0.8282701834814361,0.0032094039692235343,0,0,0,0.38745989989183727,0,0,4.162193030904746
6,23,female,52,105,105,right,same,valid,clock,2,0.2894122884499666,1,f,1,same,0.9074366657241626,0.002871787673442372,0,0,0,0.38745348515658407,0,0,4.467738697077948
6,23,female,53,75,75,right,same,valid,clock,2,0.4974280122478376,1,j,0,change,0.9095888091105735,0.0025299391471257926,0,0,0,0.38748010630479257,0,0,4.67713487171568
6,23,female,54,45,135,right,change,catch,anti,2,0.48945513887701964,1,j,1,change,0.898240823242304,0,0,0,0,0.3875314241813612,0,0,6.0339673015314474
6,23,female,55,45,45,right,same,valid,anti,2,0.31240622460063605,1,f,1,same,1.2320953537437163,0.0021828042457650576,0,0,0,0.3875080104007793,0,0,4.701115714751722
6,23,female,56,75,125,right,change,valid,clock,1,0.2094006649513176,0,j,1,change,0.5606432952226896,0.0018293116576996171,0,0,0,0.38744546673842706,0,0,3.7881999036508205
6,23,female,57,75,85,left,same,catch,anti,1,0.2014431869429245,0,j,0,change,0.3901284293970093,0,0,0,0,0.38741724190731475,0,0,5.2225553607622714
6,23,female,58,75,75,left,same,valid,anti,2,0.36803608416448697,1,f,1,same,1.7385148991816095,0.0027680169987575054,0,0,0,0.38745124000161013,0,0,5.208764323298965
6,23,female,1,75,75,left,same,valid,anti,2,0.4320576992522547,1,f,1,same,1.0898175072215963,0.0024293732957798575,0,0,0,0.38740826127832406,0,0,4.353160635855602
6,23,female,2,105,105,left,same,valid,clock,2,0.23352231140779622,1,j,0,change,1.0834239414562035,0.0020851657410659863,0,0,0,0.3875243679722189,0,0,4.309526329598157
6,23,female,3,105,105,right,same,valid,anti,2,0.28944789022716577,1,f,1,same,0.8851188425760483,0.0017343430650760272,0,0,0,0.38742942990393203,0,0,4.186789688443241
6,23,female,4,165,215,left,change,valid,clock,2,0.22539259778204723,1,j,1,change,0.7159350341371464,0.0013758297302514655,0,0,0,0.3875455365960079,0,0,4.252641747989401
6,23,female,5,135,185,left,change,valid,clock,2,0.30538305265690724,1,f,0,same,1.2970416527950874,0.0010085202558479112,0,0,0,0.38744867410605366,0,0,4.776172597408731
6,23,female,6,45,45,left,same,valid,anti,2,0.26550104527996155,1,j,0,change,0.9581829879953148,0.0006312733917531732,0,0,0,0.3874499570538319,0,0,4.209616200027085
6,23,female,7,75,55,right,same,catch,clock,2,0.32941810020020057,1,f,1,same,1.1595594617028837,0,0,0,0,0.38743263726973964,0,0,6.23632106002151
6,23,female,8,105,185,right,same,catch,anti,1,0.3994939416043053,0,j,0,change,1.1857290121115511,0,0,0,0,0.38748363440754474,0,0,6.564194171445706
6,23,female,9,135,135,right,same,valid,anti,2,0.6644503759362124,1,j,0,change,1.1423949154250295,0.00024290609580540634,0,0,0,0.3874223736947897,0,0,5.193430862955211
6,23,female,10,105,155,right,change,valid,clock,2,0.38530454913779977,1,f,0,same,1.2799284243938018,0,0,0,0,0.38752693386777537,0,0,6.5328315728093
6,23,female,11,15,65,right,same,catch,clock,2,0.4884855517739197,1,j,0,change,1.0387283173968171,0,0,0,0,0.38751827397391025,0,0,6.454888380414559
6,23,female,12,135,85,right,change,valid,anti,2,0.2878018693827471,1,f,0,same,0.8520329255497927,0,0,0,0,0.3874977468258294,0,0,6.06473397134323
6,23,female,13,45,45,left,same,valid,clock,1,0.5044104506287113,0,j,0,change,1.0751787626104488,0,0,0,0,0.38743327874544775,0,0,6.018001348376856
6,23,female,14,75,75,right,same,valid,anti,1,0.2636702800864441,0,j,0,change,0.3299136384302983,0.0001577256400218663,0,0,0,0.38747369157135836,0,0,4.12225970565305
6,23,female,15,165,165,left,same,valid,anti,2,0.39340186835579516,1,j,0,change,0.7865942956341314,0.0011959389448474855,0,0,0,0.3874807477768627,0,0,4.090572521457943
6,23,female,16,15,65,left,change,valid,clock,1,0.8654823784036125,0,j,1,change,0.7581147993696504,0.0008325978986542526,0,0,0,0.38741788338120386,0,0,4.714196320379415
6,23,female,17,75,165,left,change,catch,anti,2,0.34554570466207224,1,f,0,same,1.011103263752375,0,0,0,0,0.3875035200853745,0,0,5.908900508109582
6,23,female,18,75,125,left,change,valid,clock,1,0.20049669288528094,0,j,1,change,0.4025685237975267,0.0018043796351053243,0,0,0,0.38750448229438916,0,0,4.007835598054953
6,23,female,19,45,355,left,change,valid,anti,1,0.20949271638892242,0,j,1,change,0.4723537777335878,0.0026985409394520987,0,0,0,0.3874554095782514,0,0,3.7011654289435683
6,23,female,20,15,15,right,same,valid,anti,2,0.46541880838594807,1,f,1,same,1.1994985602123052,0.003536254059147259,0,0,0,0.38750448229620815,0,0,4.7070297791215125
6,23,female,21,105,55,right,change,valid,anti,2,0.37745900824302225,1,f,0,same,0.6786885203837301,0.0032286828055898,0,0,0,0.3874589376828226,0,0,4.138081006549328
6,23,female,22,75,85,left,same,catch,anti,2,0.28149971358106995,1,f,1,same,0.8000107126063085,0,0,0,0,0.38747721967411053,0,0,5.752818153185217
6,23,female,23,15,15,right,same,valid,clock,2,0.3043528463149414,1,f,1,same,1.1657278702896292,0.002918016680232005,0,0,0,0.38748010630479257,0,0,4.5892016927209625
6,23,female,24,165,115,left,change,valid,anti,2,0.25747492961454554,1,f,0,same,0.8206456301868457,0.0026033575056245706,0,0,0,0.3874865210400458,0,0,4.129217447307383
6,23,female,25,105,45,right,change,catch,anti,1,0.24147209173497686,0,j,1,change,0.3130024741640227,0,0,0,0,0.3874727293605247,0,0,5.269229930381698
6,23,female,26,15,325,right,change,valid,anti,1,0.24845100201491732,0,j,1,change,0.5894569991487515,0.002283796239830216,0,0,0,0.3874845966183784,0,0,4.119627419397148
6,23,female,27,75,125,right,change,valid,clock,2,0.2974932500965224,1,f,0,same,0.7625342306255334,0.003130029576321691,0,0,0,0.38747208788663556,0,0,4.287528922433921
6,23,female,28,135,185,right,change,valid,clock,1,0.209487905340211,0,j,1,change,0.48252241468617285,0.0028222511253778726,0,0,0,0.3874435423185787,0,0,3.90849573837113
6,23,female,29,165,165,right,same,valid,clock,2,0.27328917430168076,1,f,1,same,0.9148703806695266,0.0036337421259465263,0,0,0,0.38742365664256795,0,0,4.135407024519736
6,23,female,30,135,135,left,same,valid,clock,2,0.24147209173679585,1,f,1,same,0.8741634384514327,0.0033350883807691245,0,0,0,0.38745829620711447,0,0,4.384215968710123
6,23,female,31,105,105,left,same,valid,anti,2,0.2573668413388077,1,f,1,same,0.7418800688446936,0.0030336559260341622,0,0,0,0.38747946483090345,0,0,4.167431944479176
6,23,female,32,165,215,right,change,valid,clock,2,0.2973864447685628,1,f,0,same,0.7832599166977161,0.002728590523683072,0,0,0,0.38750768966383475,0,0,4.200758414046504
6,23,female,33,75,75,left,same,valid,clock,2,0.36940851658619067,1,j,0,change,1.1516260389453237,0.0024190286936212613,0,0,0,0.3875307827074721,0,0,4.6913335655463015
6,23,female,34,75,75,right,same,valid,clock,2,0.36149401729926467,1,f,1,same,0.990945281673703,0.002104093484184222,0,0,0,0.3874685597838834,0,0,4.346136180962276
6,23,female,35,75,25,left,change,valid,anti,2,1.465510859823553,1,j,1,change,1.0809087241032103,0.0017828902060848528,0,0,0,0.3874329580066842,0,0,5.656046111676915
6,23,female,36,165,165,right,same,valid,anti,1,0.6254016425573354,0,j,0,change,0.8250140643049235,0.0014545020982385526,0,0,0,0.3875160288189363,0,0,4.847644605753885
6,23,female,37,15,15,left,same,valid,clock,1,0.2254349350278062,0,j,0,change,0.8200885105052294,0.002329676936055236,0,0,0,0.38749646387805115,0,0,3.986485758327035
6,23,female,38,105,155,left,change,valid,clock,1,0.20951003617119568,0,j,1,change,0.22330780910488102,0.0031432865787557884,0,0,0,0.38754104628242203,0,0,3.5914997713134653
6,23,female,39,45,95,left,change,valid,clock,2,0.4175029876623739,1,j,1,change,1.028157797332824,0.003913099413699939,0,0,0,0.3874621450486302,0,0,4.53795341748264
6,23,female,40,15,65,right,change,valid,clock,1,1.0574263059279474,0,j,1,change,1.1270425316124602,0.003627820987200714,0,0,0,0.3874711256776209,0,0,5.436228880287672
6,23,female,41,45,355,right,change,valid,anti,1,0.2174736081778974,0,j,1,change,0.5975956934034912,0.004374831470627449,0,0,0,0.3874942187212582,0,0,4.207170903278893
6,23,female,42,15,325,left,change,valid,anti,2,0.7374731463187345,1,f,0,same,0.6063781062548514,0.005103247142905609,0,0,0,0.38749742608706583,0,0,4.537646151704394
6,23,female,43,135,85,left,change,valid,anti,1,0.22546059396518103,0,j,1,change,0.30892623119507334,0.004842872032715273,0,0,0,0.38754393291310407,0,0,3.4528568340338097
6,23,female,44,105,105,right,same,valid,clock,2,0.4495054560538847,1,j,0,change,1.1014961726486945,0.00556325557033005,0,0,0,0.38747689893898496,0,0,4.676141870831998
6,23,female,45,45,45,right,same,valid,anti,1,0.2094394740943244,0,j,0,change,0.5159598591581016,0.00530250628114709,0,0,0,0.3874538058953476,0,0,3.8506396452394256
6,23,female,46,105,55,left,change,valid,anti,2,0.28949247262971767,1,f,0,same,0.8988229603874061,0.006077894386839533,0,0,0,0.38749806756095495,0,0,4.244069096954263
6,23,female,47,135,135,right,same,valid,clock,1,0.25730269399718964,0,j,0,change,1.277202162278627,0.005814216364206204,0,0,0,0.38741724190731475,0,0,4.799720445875209
6,23,female,48,45,45,right,same,valid,clock,2,0.30543789863440907,1,j,0,change,1.1666445358332567,0.006594644835333785,0,0,0,0.38748042704173713,0,0,4.337152345451614
6,23,female,49,135,135,left,same,valid,anti,1,0.2334796534250927,0,j,0,change,0.3335860738679912,0.006325595342741019,0,0,0,0.3874461082123162,0,0,3.5754619731342245
6,23,female,50,165,15,left,same,catch,anti,3,1.265452614035894,1,f,1,same,1.0279682419331948,0,0,0,0,0.38749229430140986,0,0,6.985212112813315
6,23,female,51,165,115,right,change,valid,anti,1,0.18444798965538212,0,j,1,change,0.24660612440311525,0.00711832773350235,0,0,0,0.38748844545989414,0,0,3.0994001581875636
6,23,female,52,165,165,left,same,valid,clock,2,0.4894230652043916,1,f,1,same,0.9048880917507631,0.007949427878216675,0,0,0,0.38750768966201576,0,0,4.313159635155898
6,23,female,53,75,25,right,change,valid,anti,2,0.25747011856401514,1,f,0,same,1.0574093068826187,0.0076537349704712265,0,0,0,0.3874355239022407,0,0,4.414530399748401
6,23,female,54,15,15,left,same,valid,anti,2,0.3054125604357978,1,f,1,same,1.4378498836686049,0.007366514840683458,0,0,0,0.3874897284058534,0,0,4.830376461517517
6,23,female,55,15,165,left,change,catch,clock,2,0.32144811345824564,1,f,0,same,1.2145321317257185,0,0,0,0,0.38745188147368026,0,0,5.877604301977044
6,23,female,56,135,325,left,same,catch,anti,2,0.2320020193583332,1,f,1,same,0.960727392390254,0,0,0,0,0.3874791440939589,0,0,6.158463504330939
6,23,female,57,45,135,right,change,catch,anti,2,0.8803610340801242,1,f,0,same,1.2605790195848385,0,0,0,0,0.3875269338659564,0,0,6.517467001003752
6,23,female,58,45,95,right,change,valid,clock,1,0.22287096569198184,0,j,1,change,0.2858229238227068,0.007086940234714512,0,0,0,0.3875388011238101,0,0,4.128230861158954
6,23,female,1,75,75,left,same,valid,anti,1,0.5443078533662629,0,j,0,change,0.7023341935491771,0.00790554114123182,0,0,0,0.38747048420373176,0,0,4.497184893814847
6,23,female,2,75,75,left,same,valid,clock,1,0.43348786428396124,0,j,0,change,0.24937504450281267,0.008779206158827157,0,0,0,0.3875907604742679,0,0,3.7203425981351756
6,23,female,3,165,165,right,same,valid,anti,2,0.4334808080766379,1,j,0,change,0.8015614746454958,0.00972727365192716,0,0,0,0.38741082717206154,0,0,3.9588222162783495
6,23,female,4,15,15,left,same,valid,anti,2,0.4894580255058827,1,j,0,change,0.7502012622917391,0.00937939437396329,0,0,0,0.3874663146252715,0,0,4.2587771206945035
6,23,female,5,15,15,right,same,valid,anti,2,0.2654757070795313,1,j,0,change,0.6851603459090256,0.009044960738837149,0,0,0,0.3874393727419374,0,0,4.038726713713913
6,23,female,6,165,165,left,same,valid,anti,2,0.3374336315537221,1,f,1,same,1.3376279980057006,0.00872289206787974,0,0,0,0.3874701634667872,0,0,4.821112302111942
6,23,female,7,75,75,right,same,valid,anti,2,0.5694664416369051,1,j,0,change,0.7931687569071073,0.00841217470734229,0,0,0,0.3874749745173176,0,0,4.247563202774472
6,23,female,8,75,125,left,change,valid,clock,2,0.28149810989816615,1,f,0,same,1.1148259907076863,0.008111855900548248,0,0,0,0.38747401230648393,0,0,4.450915093933872
6,23,female,9,75,25,left,change,valid,anti,2,0.2894395510720642,1,j,1,change,0.6390265383961378,0.007821038173375594,0,0,0,0.38748363440936373,0,0,3.7956044315542385
6,23,female,10,165,215,right,change,valid,clock,2,0.2975012685146794,1,f,0,same,1.0539508028359705,0.00753887418054261,0,0,0,0.3875266131290118,0,0,4.531978733872165
6,23,female,11,15,165,left,change,catch,clock,1,2.0652991094430035,0,j,1,change,3.4691355054910673,0,0,0,0,0.3874775404110551,0,0,10.1046284874501
6,23,female,12,45,45,right,same,valid,anti,1,0.22329850774076476,0,j,0,change,57.36129836789951,0.0072645619654552185,0,0,0,0.38744225937261945,0,0,60.95959743692765
6,23,female,13,105,45,right,change,catch,anti,2,0.44146041691783466,1,f,0,same,0.6933003231097246,0,0,0,0,0.38743969347888196,0,0,5.721294223980294
6,23,female,14,135,135,right,same,valid,anti,1,0.5121328286222706,0,j,0,change,0.6991605037092086,0.008066673432384208,0,0,0,0.38746663536221604,0,0,4.4113060335075716
6,23,female,15,105,105,right,same,valid,anti,1,0.17742449697288976,0,j,0,change,0.4210326952597825,0.00892615084823184,0,0,0,0.3874785026200698,0,0,3.6505602308261587
6,23,female,16,135,135,left,same,valid,clock,2,0.25746274161974725,1,f,1,same,0.775964118542106,0.009861674610933735,0,0,0,0.38749646387623216,0,0,3.9668951595067483
6,23,female,17,105,105,right,same,valid,clock,1,0.11340705146176333,0,j,0,change,0.44496061673817167,0.009517644105087375,0,0,0,0.38744963631688734,0,0,3.6912928319834464
6,23,female,18,75,165,left,change,catch,anti,2,0.2013739078101935,1,f,0,same,0.8472257235971483,0,0,0,0,0.38751185924047604,0,0,5.6748464152206
6,23,female,19,105,105,left,same,valid,anti,2,0.22416706277726917,1,f,1,same,0.9149896947292291,0.010477107968469068,0,0,0,0.38752725460290094,0,0,4.112921456067852
6,23,female,20,15,325,right,change,valid,anti,2,0.23346714469334984,1,f,0,same,0.7590811791051237,0.0101379989906914,0,0,0,0.38751089702964236,0,0,4.184442537129144
6,23,female,21,45,45,left,same,valid,clock,2,0.20148744861035084,1,j,0,change,1.2589105471706716,0.009789534161900204,0,0,0,0.38747144641456543,0,0,4.594459850499334
6,23,female,22,15,325,left,change,valid,anti,2,0.545440695459547,1,f,0,same,0.9373444025986828,0.00945129321764393,0,0,0,0.387455730313377,0,0,4.4470223123698815
6,23,female,23,135,325,left,same,catch,anti,1,0.16150857874345093,0,j,0,change,0.2996976735685166,0,0,0,0,0.3875487439618155,0,0,5.222534512875427
6,23,female,24,105,105,left,same,valid,clock,2,0.200180767214988,1,f,1,same,1.0261522306282131,0.009126186340370046,0,0,0,0.3874951809302729,0,0,4.40437908257627
6,23,female,25,105,55,left,change,valid,anti,2,0.353442884166725,1,j,1,change,1.4462442050898972,0.00881319276912157,0,0,0,0.3874951809302729,0,0,4.907927072168604
6,23,female,26,15,15,right,same,valid,clock,2,0.2174485907144117,1,f,1,same,0.6991800686500937,0.008511354476652744,0,0,0,0.38747689893716597,0,0,3.6322727852966636
6,23,female,27,45,45,right,same,valid,clock,2,0.2254195396672003,1,f,1,same,0.7799422160733229,0.008219770586692043,0,0,0,0.3874169211703702,0,0,4.276053283350848
6,23,female,28,45,45,left,same,valid,anti,2,0.2414101895483327,1,f,1,same,0.9507884029299021,0.007937592252311887,0,0,0,0.38741307233067346,0,0,4.488534945228821
6,23,female,29,15,65,left,change,valid,clock,2,0.22551383626159804,1,f,0,same,0.7896008816405811,0.007664017949358448,0,0,0,0.3874467496862053,0,0,4.210247089153199
6,23,female,30,45,355,right,change,valid,anti,2,0.5454820704962913,1,j,1,change,0.8085804770125833,0.007398289143444758,0,0,0,0.3874040917016828,0,0,4.700834107912669
6,23,female,31,165,165,left,same,valid,clock,2,0.2734748808634322,1,f,1,same,0.6512934349684656,0.007139686293062553,0,0,0,0.3874249395885272,0,0,3.947832493324313
6,23,female,32,75,125,right,change,valid,clock,2,0.19337569624076423,1,j,1,change,0.8405213639525755,0.006887525154967489,0,0,0,0.3874403349527711,0,0,4.271976078172884
6,23,female,33,75,25,right,change,valid,anti,2,0.16943654897477245,1,j,1,change,0.8452769272917067,0.006641153361195362,0,0,0,0.3874352031652961,0,0,4.388567083047747
6,23,female,34,135,85,right,change,valid,anti,1,0.18548845957229787,0,j,1,change,0.2992095122808678,0.00639994723991727,0,0,0,0.38749486019332835,0,0,3.771603702842185
6,23,female,35,45,95,right,change,valid,clock,1,0.17744662780569342,0,j,1,change,0.33911300901672803,0.007110258541134673,0,0,0,0.38747144641274645,0,0,3.7069066162202944
6,23,female,36,15,65,right,change,valid,clock,2,0.28947002105996944,1,f,0,same,0.8674257221864536,0.007856544893310335,0,0,0,0.38747048420373176,0,0,4.112717467512994
6,23,female,37,135,85,left,change,valid,anti,2,0.20141432063792308,1,f,0,same,0.7248556845115672,0.007590939675013564,0,0,0,0.38750127492858155,0,0,4.184614131276248
6,23,female,38,165,215,left,change,valid,clock,2,0.19342733485063945,1,j,1,change,1.326788700573161,0.007332818283240172,0,0,0,0.3874201285379968,0,0,4.706529109102121
6,23,female,39,165,165,right,same,valid,clock,1,0.47350586402899353,0,j,0,change,1.0926945155952126,0.007081497702323358,0,0,0,0.3874281469561538,0,0,4.457593153169
6,23,female,40,45,95,left,change,valid,clock,2,0.30551968649888295,1,j,1,change,0.8294928318555321,0.007817417994347486,0,0,0,0.387471767149691,0,0,4.202569614300955
6,23,female,41,105,155,right,change,valid,clock,1,0.17745945727438084,0,j,1,change,0.6148279151275347,0.007555648448172525,0,0,0,0.3874775404110551,0,0,3.9247978236089693
6,23,female,42,45,355,left,change,valid,anti,2,0.2334158268167812,1,f,0,same,0.8582597082204302,0.008319445671694736,0,0,0,0.38749486019332835,0,0,4.247655574949022
6,23,female,43,45,135,right,change,catch,anti,2,0.2814823937987967,1,j,1,change,0.5752015349189605,0,0,0,0,0.3875423292283813,0,0,5.628061191433517
6,23,female,44,165,115,right,change,valid,anti,1,0.2161601913139748,0,j,1,change,0.5169259181566304,0.008045037435883418,0,0,0,0.3874983882978995,0,0,3.866436249407343
6,23,female,45,165,115,left,change,valid,anti,1,0.4815088866525912,0,j,1,change,0.2897355910627084,0.008843057047364933,0,0,0,0.38753912186257367,0,0,3.82852035812175
6,23,female,46,135,135,left,same,valid,anti,2,0.29744353590467654,1,f,1,same,1.2257566339576442,0.009711625089708742,0,0,0,0.3875067274530011,0,0,4.469084187616318
6,23,female,47,105,185,right,same,catch,anti,2,0.249522904130572,1,f,1,same,1.0219695030700677,0,0,0,0,0.3875173117630766,0,0,5.596679027859864
6,23,female,48,75,85,left,same,catch,anti,1,0.1684955074397294,0,j,0,change,0.13588235633687873,0,0,0,0,0.3874942187212582,0,0,5.36299666882951
6,23,female,49,105,55,right,change,valid,anti,2,0.28023408648732584,1,f,0,same,1.579819822940408,0.009392607501903905,0,0,0,0.38744771189703897,0,0,4.988497098294829
6,23,female,50,15,65,right,same,catch,clock,2,0.3614622643635812,1,f,1,same,0.7848389035680157,0,0,0,0,0.3875179532369657,0,0,5.456319186920155
6,23,female,51,135,185,left,change,valid,clock,1,0.14424845292705868,0,j,1,change,0.38803658451251977,0.009085823805908055,0,0,0,0.3875099348206277,0,0,3.4133087135833193
6,23,female,52,165,15,left,same,catch,anti,1,0.1294352275417623,0,j,0,change,0.27917533457730315,0,0,0,0,0.38746663536221604,0,0,4.910562886529078
6,23,female,53,75,75,right,same,valid,clock,2,0.20026287581458746,1,f,1,same,1.022435533523094,0.009972709427830073,0,0,0,0.387508972609794,0,0,4.199666305516075
6,23,female,54,135,135,right,same,valid,clock,2,0.4092549221859372,1,j,0,change,1.3616479709235136,0.009645845746714399,0,0,0,0.3875615734323219,0,0,4.794021275107298
6,23,female,55,135,185,right,change,valid,clock,2,0.25750796549800725,1,f,0,same,1.0738865143666771,0.009331871933350055,0,0,0,0.38742365664256795,0,0,4.355537615681897
6,23,female,56,75,55,right,same,catch,clock,2,0.32948545490944525,1,f,1,same,0.8353879727583262,0,0,0,0,0.38740761980625393,0,0,5.7995562286760105
6,23,female,57,15,15,left,same,valid,clock,2,0.5043928101094934,1,f,1,same,1.9286934918018233,0.009029841739342515,0,0,0,0.3874239773795125,0,0,5.45349157200144
6,23,female,58,105,155,left,change,valid,clock,2,0.3534223570168251,1,j,1,change,1.1608590868891042,0.00873886651145589,0,0,0,0.3875500269095937,0,0,4.263691769445359
6,23,female,1,75,25,left,change,valid,anti,1,0.1200844692211831,0,j,1,change,0.3211466209413629,0.008458110288000309,0,0,0,0.3874701634667872,0,0,3.537286285105438
6,23,female,2,15,15,right,same,valid,clock,2,0.5933693456518085,1,f,1,same,0.8942280861447216,0.009272539488454357,0,0,0,0.38752083986764774,0,0,4.561048385699905
6,23,female,3,75,75,right,same,valid,anti,2,0.40139494813956844,1,f,1,same,1.3121021661918348,0.008975137483436146,0,0,0,0.3874329580085032,0,0,4.692757315844574
6,23,female,4,105,155,right,change,valid,clock,1,0.16150601285153243,0,j,1,change,0.24661831239973253,0.008688534718596375,0,0,0,0.3874807477786817,0,0,3.4518510036814405
6,23,female,5,75,165,left,change,catch,anti,2,0.25737389754795004,1,f,0,same,0.732954928153049,0,0,0,0,0.3874701634667872,0,0,5.518771437240503
6,23,female,6,135,185,left,change,valid,clock,1,0.13613188950512267,0,j,1,change,0.38887466956111894,0.009518849287318831,0,0,0,0.3875185947108548,0,0,3.5510365890040703
6,23,female,7,105,155,left,change,valid,clock,2,0.23347259721776936,1,f,0,same,0.9694825426213356,0.010405556035789854,0,0,0,0.38745444736741774,0,0,4.400637368007665
6,23,female,8,45,135,right,change,catch,anti,2,0.5454503175624268,1,j,1,change,0.726180647901856,0,0,0,0,0.3874685597838834,0,0,6.142976731833187
6,23,female,9,105,105,left,same,valid,clock,2,0.18452689088735497,1,f,1,same,0.7849861217237049,0.010091340275100558,0,0,0,0.38758370426512556,0,0,4.084502579044056
6,23,female,10,135,325,left,same,catch,anti,2,0.16941313519600953,1,f,1,same,0.6933243783641956,0,0,0,0,0.38747625746327685,0,0,5.627974913257276
6,23,female,11,15,65,right,same,catch,clock,1,0.16827580278913956,0,j,0,change,0.2403540035320475,0,0,0,0,0.3874675975730497,0,0,4.816869276053694
6,23,female,12,105,105,right,same,valid,anti,1,0.20046910952623875,0,j,0,change,0.0947292693417694,0.009769165353700926,0,0,0,0.3874807477786817,0,0,3.3967923762156715
6,23,female,13,15,65,left,change,valid,clock,1,0.2094548694567493,0,j,1,change,0.2435113357969385,0.010641609131122609,0,0,0,0.38753110344259767,0,0,3.3464508236847905
6,23,female,14,45,45,right,same,valid,anti,2,0.2734982946440141,1,f,1,same,1.0851475805866357,0.011432383735859142,0,0,0,0.38751602881711733,0,0,4.462733921309336
6,23,female,15,15,165,left,change,catch,clock,2,0.19344465463291272,1,f,0,same,0.803967962250681,0,0,0,0,0.3874788233588333,0,0,5.643636808001247
6,23,female,16,165,165,left,same,valid,clock,2,0.11989202719087189,1,f,1,same,0.8096838113269769,0.01115440119158101,0,0,0,0.3874685597838834,0,0,3.9585040454530827
6,23,female,17,45,95,right,change,valid,clock,2,0.1294820551011071,1,j,1,change,1.134369120496558,0.010868507905872238,0,0,0,0.3874627865207003,0,0,4.362872864454403
6,23,female,18,75,25,right,change,valid,anti,1,0.14546500730284606,0,j,1,change,0.2852795958206116,0.010573990200920313,0,0,0,0.38741243085678434,0,0,3.249504622135646
6,23,female,19,105,105,left,same,valid,anti,1,0.1454720635101694,0,j,0,change,0.12002801955895848,0.011364301664834986,0,0,0,0.38744707042314985,0,0,3.163390020341467
6,23,female,20,165,15,left,same,catch,anti,1,0.2413665693566145,0,j,0,change,2.6415917906797404,0,0,0,0,0.387487803986005,0,0,7.484235790239836
6,23,female,21,105,185,right,same,catch,anti,2,0.3653191234134283,1,f,1,same,0.9884024809634866,0,0,0,0,0.3874371275851445,0,0,6.1897199391114555
6,23,female,22,45,355,left,change,valid,anti,2,0.3680707237308525,1,j,1,change,1.2184730237968324,0.01208601162553441,0,0,0,0.38748363440936373,0,0,5.046628062795207
6,23,female,23,15,15,left,same,valid,clock,2,0.34544787996310333,1,f,1,same,0.8715731687061634,0.011829398590938123,0,0,0,0.3874759367281513,0,0,4.270413769610968
6,23,female,24,75,125,right,change,valid,clock,1,0.27350182274676627,0,j,1,change,0.33856519070104696,0.011566597414786217,0,0,0,0.38746984272984264,0,0,3.7945132852364623
6,23,female,25,105,45,right,change,catch,anti,2,0.28941485434552305,1,f,0,same,1.3283776302814658,0,0,0,0,0.38753302786244603,0,0,6.033581455259991
6,23,female,26,165,115,left,change,valid,anti,1,0.15216166926802543,0,j,1,change,0.36282699910407246,0.01226780121930654,0,0,0,0.3874733708325948,0,0,4.059853962156922
6,23,female,27,75,75,left,same,valid,clock,1,0.17748062589816982,0,j,0,change,0.319693362866019,0.012918443876106855,0,0,0,0.3875631771152257,0,0,3.578624757923535
6,23,female,28,15,325,right,change,valid,anti,2,0.25741174448012316,1,f,0,same,1.6251556374918437,0.013530469175474902,0,0,0,0.3874903698797425,0,0,4.884760258924871
6,23,female,29,15,325,left,change,valid,anti,2,0.18537876761365624,1,f,0,same,0.818359098113433,0.013305870119895813,0,0,0,0.3875035200853745,0,0,3.7209789397857094
6,23,female,30,105,55,left,change,valid,anti,2,0.24136721082868462,1,j,1,change,0.6523669407670241,0.013078593058847399,0,0,0,0.3875128214513097,0,0,4.118936231767293
6,23,female,31,75,75,left,same,valid,anti,2,0.17744374117501138,1,j,0,change,1.141560037744057,0.012848116006834498,0,0,0,0.3875471402807307,0,0,4.311258307881872
6,23,female,32,165,165,left,same,valid,anti,1,0.25741976289828017,0,j,0,change,0.7658734206124791,0.012613909061524986,0,0,0,0.38748684177699033,0,0,3.9245883825315104
6,23,female,33,165,165,right,same,valid,anti,1,1.0414500891965872,0,j,0,change,1.633896354571334,0.013234113218458854,0,0,0,0.3874182041181484,0,0,5.855141185096727
6,23,female,34,75,125,left,change,valid,clock,2,0.225494912794602,1,f,0,same,1.0331705915232305,0.01382170747735223,0,0,0,0.38741467601357726,0,0,4.748585390698281
6,23,female,35,165,215,left,change,valid,clock,2,0.369423591211671,1,j,1,change,0.7911112308538577,0.013604482862776102,0,0,0,0.3875048030331527,0,0,4.180955808253202
6,23,female,36,75,85,left,same,catch,anti,2,0.2495213004458492,1,f,1,same,1.1301626584190672,0,0,0,0,0.3875266131290118,0,0,6.095979501074908
6,23,female,37,45,45,left,same,valid,anti,1,0.24044092318399635,0,j,0,change,0.34139023972420546,0.013385270362389068,0,0,0,0.38750865187284944,0,0,3.833847474295908
6,23,female,38,135,85,right,change,valid,anti,2,0.2173966313675919,1,f,0,same,1.4669163281287183,0.013961836416182982,0,0,0,0.38745123999979114,0,0,4.770201121167702
6,23,female,39,135,135,left,same,valid,anti,2,0.1934350325318519,1,f,1,same,0.9204130319176329,0.013747906972895574,0,0,0,0.3874541266304732,0,0,3.931549652290414
6,23,female,40,165,165,right,same,valid,clock,1,0.20150573060345778,0,j,0,change,0.2708506130238675,0.01353231503871788,0,0,0,0.38743167506072496,0,0,3.8707706854347634
6,23,female,41,75,55,right,same,catch,clock,2,0.29745155432283354,1,f,1,same,1.096000348961752,0,0,0,0,0.38755483796012413,0,0,5.815332305694028
6,23,female,42,45,355,right,change,valid,anti,1,0.32000672264075547,0,j,1,change,1.2994709127069655,0.014098590342643047,0,0,0,0.38746823904511984,0,0,5.052626160186264
6,23,female,43,105,55,right,change,valid,anti,2,0.2654028998440481,1,f,0,same,0.9339356127438805,0.014647021491518086,0,0,0,0.38751667029100645,0,0,4.036668546183137
6,23,female,44,135,185,right,change,valid,clock,1,0.24152084371598903,0,j,1,change,0.22485279788270418,0.014439650678125415,0,0,0,0.38747721967411053,0,0,3.54700621138727
6,23,female,45,75,75,right,same,valid,clock,1,0.23344597606956086,0,j,0,change,0.5244010081387387,0.01497924774744519,0,0,0,0.38749293577348,0,0,3.580395224615131
6,23,female,46,165,115,right,change,valid,anti,1,0.16147297696988971,0,j,1,change,0.9333185152972874,0.015514924325063073,0,0,0,0.38750448229438916,0,0,4.0460866592129605
6,23,female,47,165,215,right,change,valid,clock,2,0.34546648269133584,1,j,1,change,0.879655734033804,0.016098236673053545,0,0,0,0.38750223713941523,0,0,4.541168482357534
6,23,female,48,15,15,right,same,valid,anti,2,0.30549691419219016,1,f,1,same,0.7813983607775299,0.015898777467564296,0,0,0,0.3875048030313337,0,0,4.376520532603536
6,23,female,49,45,95,left,change,valid,clock,2,0.34535550778673496,1,j,1,change,1.299500420485856,0.01570220646162318,0,0,0,0.3875388011238101,0,0,4.966529840383373
6,23,female,50,105,105,right,same,valid,clock,2,0.7934606273229292,1,j,0,change,0.6892118921477959,0.015508108730035941,0,0,0,0.3874743330434285,0,0,4.437480074231644
6,23,female,51,45,45,left,same,valid,clock,2,0.2894161372896633,1,f,1,same,1.4985108194123313,0.015316080694441736,0,0,0,0.3874579754701699,0,0,4.87740416226552
6,23,female,52,45,45,right,same,valid,clock,2,0.2734505048701976,1,f,1,same,1.7731849348674587,0.015125728659237392,0,0,0,0.3874547681025433,0,0,4.793072215155917
6,23,female,53,135,135,left,same,valid,clock,2,0.25741110300623404,1,f,1,same,0.8635534677741816,0.014936667415053562,0,0,0,0.3874400142158265,0,0,3.8749668839336664
6,23,female,54,135,135,right,same,valid,anti,1,0.2574229702640878,0,j,0,change,1.2157284796885506,0.014735503802996874,0,0,0,0.3874663146252715,0,0,4.836779970120915
6,23,female,55,15,65,right,change,valid,clock,2,0.2733898856313317,1,f,0,same,1.2020946032207576,0.015257324377008552,0,0,0,0.3875208398694667,0,0,4.383295454326799
6,23,female,56,135,135,right,same,valid,clock,2,0.5135283540894306,1,j,0,change,1.0577152897112683,0.015069417982740696,0,0,0,0.3874377690590336,0,0,4.390568480177535
6,23,female,57,15,15,left,same,valid,anti,2,0.29743295159278205,1,j,0,change,1.3532016901535826,0.014882671476684095,0,0,0,0.3874823514615855,0,0,4.822008440507489
6,23,female,58,135,85,left,change,valid,anti,1,0.22541986040232587,0,j,1,change,0.8617143634237436,0.014683838027450158,0,0,0,0.3874159589613555,0,0,4.064178776081462
