subject,age,gender,ntrial,memory_ori,test_ori,cue,type,trial_type,which_change,pas,pas_rt,vis,test_key,test_acc,test,test_rt,contrast,fix_dur,cue_dur,jitter_dur,target_dur,mask_dur,retention_dur,trial_dur
7,22,female,1,135,185,right,change,valid,clock,2,2.312141898601112,1,f,1,change,1.518431076466186,0.5,0,0,0,0.38745160098460474,0,0,6.881049716598682
7,22,female,2,165,215,left,change,valid,clock,2,2.8414205768622196,1,j,0,same,1.284534894760327,0.4069419370673367,0,0,0,0.38742947022092267,0,0,6.924228438221689
7,22,female,3,135,135,left,same,valid,clock,3,4.433292428841014,1,j,1,same,2.2244386483944254,0.3461892688284379,0,0,0,0.38743909229197016,0,0,9.756279363353315
7,22,female,4,165,85,right,change,catch,clock,2,2.129336346537457,1,f,1,change,2.2261937140938244,0,0,0,0,0.3873957929736207,0,0,8.809220958665719
7,22,female,5,75,25,right,change,valid,anti,2,2.8162341652796385,1,f,1,change,1.5104325698121102,0.2977447647674634,0,0,0,0.38749329662368837,0,0,7.437702544588319
7,22,female,6,45,25,left,change,catch,anti,2,2.193349737895005,1,j,0,same,1.9070921717393503,0,0,0,0,0.38742305550749734,0,0,8.85648938108261
7,22,female,7,15,15,right,same,valid,clock,2,1.8721537914807413,1,j,1,same,1.2379281500734578,0.25592670972998877,0,0,0,0.38741150902296795,0,0,6.588595216163412
7,22,female,8,75,125,right,change,valid,clock,3,3.5133300960415,1,f,1,change,1.217488947448146,0.21928796852134014,0,0,0,0.38741920667962404,0,0,7.828209473762399
7,22,female,9,105,105,left,same,valid,anti,3,3.433330596389169,1,f,0,change,1.367435769469921,0.18534516214727204,0,0,0,0.38751831400804804,0,0,8.027354584853128
7,22,female,10,75,125,right,change,catch,clock,2,2.2173699545064665,1,j,0,same,1.363368840912699,0,0,0,0,0.38745705349083437,0,0,8.591460668823856
7,22,female,11,15,15,left,same,valid,anti,2,4.600084289339065,1,j,1,same,3.844714532406215,0.15488367948209586,0,0,0,0.3873431923202588,0,0,12.02719966951372
7,22,female,12,75,75,right,same,valid,clock,2,1.5453975711325256,1,j,1,same,1.2968081667004299,0.12473050325576701,0,0,0,0.3874070187230245,0,0,5.813633319562541
7,22,female,13,75,25,left,change,valid,anti,2,1.2654200098013462,1,f,1,change,1.5545225015330288,0.09631031933527462,0,0,0,0.387452883926926,0,0,6.168779138837635
7,22,female,14,165,115,right,change,valid,anti,2,1.4734315383257126,1,j,0,same,2.5767677668336546,0.07085810833100747,0,0,0,0.387484316024711,0,0,7.262292836817323
7,22,female,15,15,45,right,change,catch,anti,2,2.425079991480743,1,j,0,same,1.13400754113718,0,0,0,0,0.3874054150446682,0,0,8.310518334535118
7,22,female,16,135,45,left,same,catch,clock,1,4.320132066128281,0,f,0,change,2.3992867479710185,0,0,0,0,0.38746378894029476,0,0,11.617763882081817
7,22,female,17,165,165,right,same,valid,clock,1,1.5282789451130157,0,j,1,same,3.7480047032686343,0.0459659317711002,0,0,0,0.3874689207113988,0,0,8.594613179927364
7,22,female,18,15,65,right,change,valid,clock,1,6.001283584234443,0,f,1,change,2.8503796869108555,0.09948074663405942,0,0,0,0.3874272250714057,0,0,11.990350666745144
7,22,female,19,45,95,right,change,valid,clock,2,2.265457215141396,1,f,1,change,1.5615770830499969,0.1358815300792956,0,0,0,0.3874422996495923,0,0,7.296336685235474
7,22,female,20,165,165,left,same,valid,clock,1,2.1773703650487732,0,f,0,change,1.102534068544628,0.12454168819639494,0,0,0,0.3874108675518073,0,0,6.369813703881846
7,22,female,21,15,15,right,same,valid,anti,2,1.3454249619599068,1,j,1,same,1.619309186639839,0.15125200161763225,0,0,0,0.387416640794072,0,0,5.939803042627318
7,22,female,22,75,75,left,same,valid,anti,1,1.29736047355982,0,f,0,change,2.4039733378840538,0.14187474997195093,0,0,0,0.38743909229197016,0,0,7.010729891796473
7,22,female,23,105,105,right,same,valid,clock,2,2.4014584493324946,1,j,1,same,1.3585712764515847,0.16413725442053717,0,0,0,0.38743716787848825,0,0,6.941111644245211
7,22,female,24,105,155,right,change,valid,clock,1,1.4814403085219965,0,f,1,change,1.9140749084626805,0.1561294771303533,0,0,0,0.3874403752352009,0,0,6.3659947040114275
7,22,female,25,135,135,right,same,valid,clock,1,1.1933795663135243,0,f,0,change,1.6246898485878773,0.1758740281185871,0,0,0,0.3873739829468832,0,0,6.00698754775749
7,22,female,26,45,45,left,same,valid,anti,2,1.337426455305831,1,j,1,same,1.2317023495816102,0.19434817351225353,0,0,0,0.3874002832744736,0,0,6.016427761342129
7,22,female,27,165,215,right,change,valid,clock,2,2.2574401058163858,1,f,1,change,1.145094411757782,0.18782800755638968,0,0,0,0.38741247123016365,0,0,6.953367275722485
7,22,female,28,45,95,left,change,valid,clock,2,0.9691128322501754,1,j,0,same,2.5887193408752864,0.182009068269801,0,0,0,0.38743524346409686,0,0,6.346033718301442
7,22,female,29,135,85,right,change,valid,anti,2,1.8412464173825356,1,j,0,same,2.28837121435663,0.17635203522460513,0,0,0,0.387503560166806,0,0,7.036008033787766
7,22,female,30,15,65,left,change,valid,clock,2,1.5534512443264248,1,j,0,same,1.1302786679980272,0.17122981041416568,0,0,0,0.3874291494857971,0,0,5.838973042807083
7,22,female,31,75,185,left,same,catch,clock,1,1.3134376707921547,0,f,0,change,1.7647390879310478,0,0,0,0,0.38736404014071013,0,0,7.874461484775566
7,22,female,32,135,135,right,same,valid,anti,1,1.832182106027176,0,f,0,change,2.37415967249035,0.1661897716089039,0,0,0,0.3874041321014374,0,0,6.940177982649402
7,22,female,33,105,15,right,same,catch,clock,2,1.4494251133482976,1,f,0,change,2.097798085335853,0,0,0,0,0.3874034906302768,0,0,8.014067788129069
7,22,female,34,165,165,right,same,valid,anti,1,1.1843624031052968,0,f,0,change,3.47564846341902,0.17934091636458765,0,0,0,0.3874374886136138,0,0,7.567983457736773
7,22,female,35,105,155,left,change,valid,clock,2,1.2251612659056264,1,f,1,change,1.0867747203819818,0.1916764116495578,0,0,0,0.38742305550749734,0,0,5.873447318521357
7,22,female,36,135,185,left,change,valid,clock,2,1.3854335320183964,1,f,1,change,1.0674269813125647,0.18724909581419208,0,0,0,0.38745641201967373,0,0,6.006614852884923
7,22,female,37,75,75,left,same,valid,clock,2,2.009508209550404,1,j,1,same,1.0783999907625912,0.18319522577271108,0,0,0,0.3874089431374159,0,0,6.4553863068949795
7,22,female,38,15,325,right,change,valid,anti,2,1.313378334688423,1,f,1,change,1.1009733686742038,0.17911178199898592,0,0,0,0.3873707755901705,0,0,5.4996834338735425
7,22,female,39,105,55,left,change,valid,anti,1,0.85726010894723,0,f,1,change,3.8812094429722492,0.1753393870281763,0,0,0,0.38741920667871454,0,0,8.167427558637428
7,22,female,40,105,55,right,change,catch,clock,1,1.1214475314891388,0,f,1,change,1.3742536480476701,0,0,0,0,0.38737526589011395,0,0,6.7822935937538205
7,22,female,41,75,75,right,same,valid,anti,2,3.344470773280591,1,j,1,same,0.9102209484026389,0.1856306215936489,0,0,0,0.3874891270606895,0,0,7.1562152803608114
7,22,female,42,135,135,left,same,valid,anti,2,1.3215093051840086,1,f,0,change,1.0528476197569034,0.1822131914142764,0,0,0,0.38742690433628013,0,0,5.4574364494301335
7,22,female,43,45,45,right,same,valid,clock,2,1.497362269678888,1,j,1,same,1.8082346964174576,0.17872269342242847,0,0,0,0.387438450821719,0,0,6.892352763074086
7,22,female,44,45,355,right,change,valid,anti,2,1.273457966945898,1,j,0,same,2.0621572939144244,0.17548162629004876,0,0,0,0.3873900197322655,0,0,6.499311701208171
7,22,female,45,165,165,left,same,valid,anti,2,2.489464153296467,1,j,1,same,0.8301508868980818,0.172426976716049,0,0,0,0.3873845672251264,0,0,6.561342625260295
7,22,female,46,75,125,left,change,valid,clock,2,1.3695397956016677,1,f,1,change,1.0503157322136758,0.16927693079348044,0,0,0,0.38746186452681286,0,0,5.760184961858613
7,22,female,47,15,15,left,same,valid,clock,1,1.7453586338197056,0,f,0,change,2.8534468823208954,0.16632256891410646,0,0,0,0.387445507006305,0,0,8.018671948969313
7,22,female,48,75,45,left,same,catch,anti,2,1.3134575564045008,1,j,1,same,1.1136318441785988,0,0,0,0,0.3873787939819522,0,0,6.735517179886301
7,22,female,49,105,105,left,same,valid,clock,2,3.3593211564966623,1,j,1,same,0.7846109091196922,0.17442954928126364,0,0,0,0.3874464692135007,0,0,6.978283307118545
7,22,female,50,165,115,left,change,valid,anti,2,3.30498211577833,1,j,0,same,3.848616923553891,0.1715607277921562,0,0,0,0.3874089431374159,0,0,10.107086270202672
7,22,female,51,45,85,left,change,catch,clock,2,0.9374292777802111,1,j,0,same,1.7300877661145933,0,0,0,0,0.38668568415505433,0,0,7.608442019967697
7,22,female,52,15,325,left,change,valid,anti,2,1.5764053355023862,1,j,0,same,1.9268158130389565,0.16877580152721477,0,0,0,0.38740766019509465,0,0,7.183327068295512
7,22,female,53,45,45,right,same,valid,anti,2,1.929494276792866,1,j,1,same,0.5276791693713676,0.16616511638320347,0,0,0,0.387440695971236,0,0,5.494095897405714
7,22,female,54,45,355,left,change,valid,anti,1,1.2494589188900136,0,f,1,change,1.2263383658901148,0.16369023867415378,0,0,0,0.3874464692125912,0,0,5.217670483849361
7,22,female,55,45,45,left,same,valid,clock,1,1.1293911923412452,0,f,0,change,2.0741980324792166,0.17034825589375086,0,0,0,0.38742016888591024,0,0,6.621185490430435
7,22,female,56,135,85,left,change,valid,anti,2,0.9135206771888988,1,j,0,same,2.079501397124659,0.17699805337802327,0,0,0,0.3873973966528865,0,0,6.518556484121291
7,22,female,57,105,55,right,change,valid,anti,2,1.0091130631799388,1,f,1,change,0.9895209235137372,0.1746852873044255,0,0,0,0.3874461484774656,0,0,5.051615032497466
7,22,female,58,105,105,right,same,valid,anti,2,1.457463391227975,1,j,1,same,0.785175403933863,0.17230789659194612,0,0,0,0.38741247122925415,0,0,5.188534212234117
7,22,female,1,105,155,right,change,valid,clock,1,2.576043545643188,0,f,1,change,3.3866779864983982,0.16997437151765976,0,0,0,0.3874031698951512,0,0,8.721208519253196
7,22,female,2,135,185,right,change,valid,clock,2,1.409440277730937,1,f,1,change,1.4676352029237023,0.17604556891927509,0,0,0,0.3873957929745302,0,0,5.824382134765074
7,22,female,3,165,165,right,same,valid,clock,2,1.217505625704689,1,j,1,same,0.5509094139770241,0.17396201478152729,0,0,0,0.3874083016662553,0,0,4.980586510113426
7,22,female,4,15,15,right,same,valid,anti,2,1.7932996389799882,1,j,1,same,0.7308687575214208,0.17179938905595138,0,0,0,0.387348965563433,0,0,5.4989268183790045
7,22,female,5,15,15,right,same,valid,clock,2,1.3455150886893534,1,j,1,same,0.8364337783432347,0.16966413527978902,0,0,0,0.3874442240630742,0,0,4.894451336697784
7,22,female,6,75,125,left,change,valid,clock,2,1.057465251496069,1,f,1,change,1.0838364607197946,0.16762535165216536,0,0,0,0.3874041321023469,0,0,5.153562154728206
7,22,female,7,75,125,right,change,valid,clock,2,1.4575054076030938,1,j,0,same,1.0411298620329035,0.16569492269559077,0,0,0,0.38743043242902786,0,0,6.0452420143228665
7,22,female,8,75,75,right,same,valid,clock,1,0.9373240764734874,0,f,0,change,2.7252754478113275,0.16383923491907,0,0,0,0.3873749451540789,0,0,7.222597946265523
7,22,female,9,135,45,left,same,catch,clock,2,1.1374637889402948,1,j,1,same,0.9082182747497427,0,0,0,0,0.38739996253752906,0,0,6.532576803369011
7,22,female,10,105,155,left,change,valid,clock,2,3.0003467152810117,1,j,0,same,2.738334842929362,0.16887622393662383,0,0,0,0.3873797561900574,0,0,8.91757894588227
7,22,female,11,105,55,right,change,catch,clock,1,1.241349758422075,0,j,0,same,3.5643780678365147,0,0,0,0,0.38735121071295,0,0,9.668162043368284
7,22,female,12,75,25,left,change,valid,anti,2,1.072311144410378,1,j,0,same,1.1233555881135544,0.1670211952638569,0,0,0,0.3873746244189533,0,0,5.173728411281445
7,22,female,13,105,55,right,change,valid,anti,2,2.9213960213373866,1,f,1,change,1.7278208062525664,0.1652524953456681,0,0,0,0.3873977173880121,0,0,8.041613852189585
7,22,female,14,15,325,right,change,valid,anti,2,1.3455279181171136,1,f,1,change,1.0107523432952803,0.16354244506832422,0,0,0,0.38742177256517607,0,0,5.478119090445034
7,22,female,15,135,85,right,change,valid,anti,2,1.0734590574475078,1,f,1,change,0.9638899722631322,0.1617489166955014,0,0,0,0.38740958460857655,0,0,5.424336205414875
7,22,female,16,105,105,left,same,valid,clock,2,0.8335901357095281,1,j,1,same,1.0112116368045463,0.15996324906036935,0,0,0,0.38743909229197016,0,0,4.826984904895653
7,22,female,17,45,95,right,change,valid,clock,2,1.4813835383047262,1,j,0,same,1.5061581252621181,0.1582320580997404,0,0,0,0.3874079809302202,0,0,6.117520764429173
7,22,female,18,75,25,right,change,valid,anti,2,1.105458857308804,1,f,1,change,1.5307248754897955,0.1565906849001532,0,0,0,0.3874253006570143,0,0,6.064282488600838
7,22,female,19,75,75,left,same,valid,anti,2,0.9295465567101928,1,j,1,same,1.072631238629583,0.15501476805429032,0,0,0,0.3873682097046185,0,0,5.466832722224353
7,22,female,20,135,135,right,same,valid,clock,1,0.9453152062069421,0,f,0,change,3.734482486548586,0.15348279283014865,0,0,0,0.3873633986695495,0,0,7.869801836660372
7,22,female,21,75,125,right,change,catch,clock,2,1.1294716969996443,1,f,1,change,1.0868116049869059,0,0,0,0,0.38737815251079155,0,0,6.688656412532509
7,22,female,22,75,75,left,same,valid,clock,1,1.176051179152637,0,f,0,change,1.4001860908474555,0.15767885274852328,0,0,0,0.38749329662459786,0,0,5.247592557905591
7,22,female,23,165,165,right,same,valid,anti,2,2.377429893592307,1,j,1,same,1.3379694608302088,0.1621331401706544,0,0,0,0.38752569092957856,0,0,7.165257781689434
7,22,female,24,105,105,left,same,valid,anti,1,2.793438196797979,0,f,0,change,1.1002363180568864,0.16055493069997107,0,0,0,0.3874198481507847,0,0,6.7075887988839895
7,22,female,25,15,15,left,same,valid,anti,2,1.3294779834186556,1,j,1,same,0.4695827100367751,0.16469402213237838,0,0,0,0.38734190937793755,0,0,4.974645843650251
7,22,female,26,45,45,right,same,valid,anti,2,4.929464127637402,1,j,1,same,1.0021980016890666,0.1631871966899105,0,0,0,0.387440695971236,0,0,9.12508788157902
7,22,female,27,135,135,left,same,valid,clock,2,1.5532844617673618,1,j,1,same,4.13099038049495,0.16169744812558579,0,0,0,0.38738777458183904,0,0,8.893126698295418
7,22,female,28,15,65,right,change,valid,clock,2,1.8814429385547555,1,j,0,same,1.3949362890616612,0.16020645935966776,0,0,0,0.38749041000301077,0,0,6.640540927157417
7,22,female,29,165,85,right,change,catch,clock,2,0.9073561372133554,1,j,0,same,0.9936657908438065,0,0,0,0,0.3874262628651195,0,0,6.750854119143696
7,22,female,30,135,135,right,same,valid,anti,1,1.2323082193006485,0,f,0,change,1.7331386040050347,0.15873963120202078,0,0,0,0.38747341101134225,0,0,6.492457258761533
7,22,female,31,165,215,right,change,valid,clock,2,0.9134719253634103,1,f,1,change,0.956827051617438,0.16271626515380572,0,0,0,0.38750772973071435,0,0,5.362181156649967
7,22,female,32,75,45,left,same,catch,anti,1,1.0893970553897816,0,j,1,same,2.7302914332785804,0,0,0,0,0.38743909229197016,0,0,8.544826340867985
7,22,female,33,45,45,left,same,valid,clock,2,1.0320992279248458,1,j,1,same,0.9211737515033747,0.161308464031176,0,0,0,0.38741439564364555,0,0,5.13908863594952
7,22,female,34,135,185,left,change,valid,clock,2,0.9613721970908955,1,f,1,change,1.1632041110624414,0.15989364361883873,0,0,0,0.3875186347431736,0,0,5.038557561793823
7,22,female,35,135,135,left,same,valid,anti,2,1.4733699570733734,1,j,1,same,2.2488379745927887,0.1585176358435546,0,0,0,0.3874682792402382,0,0,6.97422471768823
7,22,female,36,45,25,left,change,catch,anti,2,1.1374317153713491,1,j,0,same,1.108342912639273,0,0,0,0,0.38745801569803007,0,0,7.000529855361492
7,22,female,37,165,115,right,change,valid,anti,2,2.192465469595845,1,f,1,change,1.3192307988374523,0.15720848617624605,0,0,0,0.3874195274156591,0,0,6.7060803789299825
7,22,female,38,105,105,right,same,valid,clock,2,1.729402674679477,1,j,1,same,1.22116297478442,0.15595064574921713,0,0,0,0.3874862404381929,0,0,6.1003793661748205
7,22,female,39,105,55,left,change,valid,anti,2,1.4174628395630862,1,f,1,change,1.1400290329947893,0.15473020736203924,0,0,0,0.387418885943589,0,0,5.93587787924389
7,22,female,40,15,15,left,same,valid,clock,2,3.8973357127642885,1,j,1,same,2.411046522070137,0.15345184842184906,0,0,0,0.3874798257256771,0,0,9.646473575227901
7,22,female,41,45,355,left,change,valid,anti,2,1.9134228528027961,1,f,1,change,1.778932925186382,0.15218548402969478,0,0,0,0.3874740524825029,0,0,6.724596129618476
7,22,female,42,105,105,right,same,valid,anti,2,2.6174165253287356,1,j,1,same,0.766395687772274,0.1509178123503518,0,0,0,0.3874426203847179,0,0,6.527766730215262
7,22,female,43,45,355,right,change,valid,anti,2,2.4254109907142265,1,j,0,same,1.5623423584083866,0.14963927157569462,0,0,0,0.3874413374423966,0,0,6.989625804084426
7,22,female,44,165,115,left,change,valid,anti,2,1.7214535613202315,1,j,0,same,1.1369506118353456,0.14840394809960372,0,0,0,0.3874910514741714,0,0,5.655573488244954
7,22,female,45,105,15,right,same,catch,clock,1,1.0333924342294267,0,j,1,same,1.3266917524742894,0,0,0,0,0.38745833643315564,0,0,7.468837961762802
7,22,female,46,75,75,right,same,valid,anti,2,1.2002436308303004,1,j,1,same,0.6848239417649893,0.14722466813505442,0,0,0,0.3874759768968943,0,0,4.565193377962714
7,22,female,47,45,45,left,same,valid,anti,1,1.1934142057689314,0,j,1,same,1.4596328474408438,0.14608892101718174,0,0,0,0.3874131127022338,0,0,5.735909118900054
7,22,female,48,75,185,left,same,catch,clock,1,1.3054019587971197,0,j,1,same,2.342626543058941,0,0,0,0,0.3874900892669757,0,0,8.762613251772564
7,22,female,49,165,165,left,same,valid,anti,2,1.3365200562438986,1,j,1,same,0.5656035989113661,0.14940127835166933,0,0,0,0.3875317849069688,0,0,4.897953128968766
7,22,female,50,15,325,left,change,valid,anti,2,0.9613680275269871,1,f,1,change,1.0268535957038694,0.14823199809183818,0,0,0,0.38744935583508777,0,0,4.9976310461888716
7,22,female,51,45,45,right,same,valid,clock,1,0.9054070264210168,0,j,1,same,1.1724275073192985,0.14711343350381995,0,0,0,0.38746090231961716,0,0,5.2451578532773055
7,22,female,52,15,45,right,change,catch,anti,1,1.0652947304415648,0,j,0,same,1.202618357884603,0,0,0,0,0.3874576949629045,0,0,7.219312009114219
7,22,female,53,165,215,left,change,valid,clock,2,1.0882853854855057,1,j,0,same,1.2239190565751414,0.15034783097043852,0,0,0,0.3874432618558785,0,0,5.345522465610884
7,22,female,54,165,165,left,same,valid,clock,1,0.7054020229443267,0,f,0,change,1.265794308353179,0.14918535993978593,0,0,0,0.38746763776907756,0,0,5.409204536998914
7,22,female,55,45,95,left,change,valid,clock,2,1.113485588703952,1,f,1,change,0.8182419707027293,0.15232065832974884,0,0,0,0.3875122200297483,0,0,5.161801213150284
7,22,female,56,45,85,left,change,catch,clock,1,0.8894189937109331,0,f,1,change,1.231091989561719,0,0,0,0,0.3875070882586442,0,0,6.501585396519658
7,22,female,57,135,85,left,change,valid,anti,1,2.431502723688027,0,j,0,same,1.2184043271090559,0.15121467465451105,0,0,0,0.3874968247173456,0,0,7.099339220329966
7,22,female,58,15,65,left,change,valid,clock,2,3.9054528916249183,1,j,0,same,0.8994868870422579,0.15412374999200462,0,0,0,0.3874435825919136,0,0,7.903477159769864
7,22,female,1,45,95,left,change,valid,clock,2,3.944187820255138,1,f,1,change,1.592502739083102,0.15306308948304242,0,0,0,0.3874532046620516,0,0,8.69686147297216
7,22,female,2,45,45,left,same,valid,clock,2,1.1214154579211026,1,j,1,same,0.821687954963636,0.1520054423051692,0,0,0,0.3874281872786014,0,0,5.116055002322355
7,22,female,3,165,165,right,same,valid,anti,2,2.4010216073220363,1,j,1,same,3.23840123521677,0.150941624338087,0,0,0,0.38743716787848825,0,0,8.74993841874766
7,22,female,4,135,135,right,same,valid,anti,2,1.0414191656245748,1,j,1,same,2.7219260049932927,0.14986299413306603,0,0,0,0.387450318041374,0,0,6.428318459749789
7,22,female,5,165,215,right,change,valid,clock,1,5.761494204947667,0,j,0,same,1.1497502110441928,0.14880856708223966,0,0,0,0.3875234457791521,0,0,9.95271329564821
7,22,female,6,135,135,right,same,valid,clock,2,1.0015023259747977,1,j,1,same,1.0085979616605982,0.15171440144088238,0,0,0,0.3874708451257902,0,0,5.381572195037734
7,22,female,7,105,105,right,same,valid,anti,2,1.393424661751851,1,j,1,same,1.204859338155984,0.15068844504353773,0,0,0,0.3874756561608592,0,0,6.119526003966712
7,22,female,8,165,115,left,change,valid,anti,2,1.3054596912215857,1,j,0,same,1.0094443831485478,0.14964883215741642,0,0,0,0.3874730902753072,0,0,5.642939067916814
7,22,female,9,165,165,left,same,valid,anti,1,0.8094701702975726,0,f,0,change,1.1767253655743843,0.14864323069711316,0,0,0,0.3875045223740017,0,0,5.538226241825214
7,22,female,10,165,215,left,change,valid,clock,1,1.2094400852902254,0,f,1,change,1.7352763073831738,0.15144448954852363,0,0,0,0.38750003207405825,0,0,6.1420968159927725
7,22,female,11,75,185,left,same,catch,clock,2,1.1533863915701659,1,f,0,change,2.2038756417914556,0,0,0,0,0.38748848558861937,0,0,8.076395392696213
7,22,female,12,105,155,left,change,valid,clock,2,0.8958596871161717,1,j,0,same,0.8053188882531686,0.1540238812600151,0,0,0,0.3874737317473773,0,0,4.464822671650836
7,22,female,13,75,75,right,same,valid,anti,1,1.3901685530199757,0,j,1,same,2.9966117481635592,0.15308172337249043,0,0,0,0.38750003207314876,0,0,7.120989200187978
7,22,female,14,75,125,right,change,catch,clock,1,1.769408037379435,0,j,0,same,1.5283084527973188,0,0,0,0,0.3874788635175719,0,0,8.170075231763803
7,22,female,15,15,65,left,change,valid,clock,2,1.2802447341609877,1,j,0,same,1.9164438622728994,0.15552935506402848,0,0,0,0.3874156785868763,0,0,6.1424114577048385
7,22,female,16,45,95,right,change,valid,clock,1,0.9454364442981387,0,f,1,change,0.983879503449316,0.1546637697961208,0,0,0,0.38751831400804804,0,0,5.3148440967961506
7,22,female,17,15,15,left,same,valid,clock,2,4.353408394037615,1,j,1,same,0.9496300634536965,0.15703685596918737,0,0,0,0.3874766183680549,0,0,8.097609172014018
7,22,female,18,15,325,left,change,valid,anti,2,1.7612825193909885,1,j,0,same,1.593120155287579,0.15616798399219095,0,0,0,0.38752889828538173,0,0,6.560004515959008
7,22,female,19,105,105,left,same,valid,clock,2,1.0174323055252898,1,j,1,same,0.5505793769516458,0.15532120017001716,0,0,0,0.38742882874976203,0,0,4.9827944546086655
7,22,female,20,105,105,left,same,valid,anti,1,1.0094604199330206,0,j,1,same,1.3693338832881636,0.15449033815404206,0,0,0,0.3874798257247676,0,0,5.556328243471398
7,22,female,21,105,155,right,change,valid,clock,1,0.9934480113106474,0,f,1,change,1.1576140087090607,0.15677304043969054,0,0,0,0.3874669962979169,0,0,5.474681445311944
7,22,female,22,45,25,left,change,catch,anti,2,0.9454771777318456,1,j,0,same,1.1701663206995363,0,0,0,0,0.3874538461341217,0,0,6.87592275658244
7,22,female,23,105,55,right,change,catch,clock,2,0.8800563981640153,1,j,0,same,0.9437881835838198,0,0,0,0,0.38741535785175074,0,0,6.907390455931818
7,22,female,24,75,25,right,change,valid,anti,2,1.0080341083166786,1,f,1,change,0.7532009421929615,0.1592701241936384,0,0,0,0.38750291869564535,0,0,5.044346841010338
7,22,female,25,45,45,right,same,valid,anti,1,1.945392182773503,0,j,1,same,1.7050588357551533,0.15838032161103022,0,0,0,0.38745641201876424,0,0,6.924088276726252
7,22,female,26,15,15,right,same,valid,anti,2,4.889430860931498,1,j,1,same,1.0377358369532885,0.16090613959232047,0,0,0,0.38740862240138085,0,0,9.020588665456671
7,22,female,27,165,165,left,same,valid,clock,2,0.9694765465237651,1,j,1,same,0.8679043643141995,0.1599999774052825,0,0,0,0.38749233441649267,0,0,5.1784570175686895
7,22,female,28,45,355,left,change,valid,anti,2,0.8573787811528746,1,j,0,same,0.8034230195853524,0.15910535692161543,0,0,0,0.38749650398040103,0,0,4.574243576947083
7,22,female,29,75,45,left,same,catch,anti,2,1.1294473210873548,1,f,0,change,1.4997770886948274,0,0,0,0,0.38743331905061495,0,0,7.250283530350316
7,22,female,30,45,85,left,change,catch,clock,2,0.9043704086689104,1,j,0,same,1.5353527707711692,0,0,0,0,0.3875330678501996,0,0,6.8136519222334755
7,22,female,31,15,65,right,change,valid,clock,2,0.8638900364094297,1,f,1,change,1.8635664140983863,0.15825111887848559,0,0,0,0.38744967656930385,0,0,6.144007759237866
7,22,female,32,45,45,left,same,valid,anti,2,0.7454561374697732,1,j,1,same,0.6214574742962213,0.15743053994936945,0,0,0,0.38745737422686943,0,0,4.404038767964266
7,22,female,33,135,45,left,same,catch,clock,2,0.7454635143903943,1,j,1,same,1.0858237390593786,0,0,0,0,0.38743460199202673,0,0,6.22079926051174
7,22,female,34,15,325,right,change,valid,anti,1,1.1121801944427716,0,f,1,change,0.7718132343243269,0.15663750157287315,0,0,0,0.3874461484774656,0,0,5.3689345673528805
7,22,female,35,135,85,left,change,valid,anti,2,1.0493795047332242,1,j,0,same,1.2721006135034258,0.15895213688148818,0,0,0,0.3874711658609158,0,0,5.313282755452747
7,22,female,36,15,15,left,same,valid,anti,1,1.6014470952895863,0,f,0,change,1.360185218447441,0.15813083839176056,0,0,0,0.38742369697956747,0,0,6.552691421475174
7,22,female,37,75,75,left,same,valid,clock,1,0.873416527894733,0,f,0,change,1.3625846421491588,0.1604903209431321,0,0,0,0.38749137221020646,0,0,5.615369910887239
7,22,female,38,135,185,right,change,valid,clock,2,0.8814576923969071,1,f,1,change,0.8233772698467874,0.16272832138730386,0,0,0,0.38755070831302874,0,0,4.726356327088979
7,22,female,39,165,165,right,same,valid,clock,2,1.3534545799775515,1,j,1,same,1.1231910507049179,0.16192891696662087,0,0,0,0.3873880953178741,0,0,5.534580118493068
7,22,female,40,105,55,left,change,valid,anti,2,0.7374396696168333,1,f,1,change,1.1052224751038011,0.1611210313697844,0,0,0,0.38748495749587164,0,0,5.258711181360013
7,22,female,41,165,115,right,change,valid,anti,2,1.0254558295637253,1,j,0,same,1.3235767674459566,0.1602994558511618,0,0,0,0.3874499973053389,0,0,5.415651645116668
7,22,female,42,15,45,right,change,catch,anti,2,0.9294641276374023,1,j,0,same,0.9466074503052369,0,0,0,0,0.3875051638442528,0,0,6.813686882423099
7,22,female,43,15,15,right,same,valid,clock,2,3.0721552668646837,1,j,1,same,0.8870263054577663,0.15947073716222754,0,0,0,0.3874775805752506,0,0,7.15144048813363
7,22,female,44,75,75,right,same,valid,clock,2,1.3694159916249191,1,j,1,same,1.1161310166808107,0.15867581793437846,0,0,0,0.3874804671968377,0,0,5.7409074639044775
7,22,female,45,75,125,left,change,valid,clock,2,1.073431474177596,1,f,1,change,1.2176031293538472,0.157913601792478,0,0,0,0.38742786654347583,0,0,5.854070392503672
7,22,female,46,135,85,right,change,valid,anti,1,1.0253920031609596,0,f,1,change,1.1827885530710773,0.15717875477151666,0,0,0,0.38738007692518295,0,0,5.643315290881219
7,22,female,47,105,15,right,same,catch,clock,2,1.0653829327557105,1,f,0,change,1.811761826807924,0,0,0,0,0.38748784411745874,0,0,8.046022043522498
7,22,female,48,45,45,right,same,valid,clock,1,1.6803487166725972,0,j,1,same,2.5831202579229284,0.15931706279000168,0,0,0,0.38744197891355725,0,0,7.312079996613647
7,22,female,49,105,55,right,change,valid,anti,1,1.0094222523857752,0,f,1,change,1.8586873827716772,0.16149915795165476,0,0,0,0.3874519217197303,0,0,5.809195941282269
7,22,female,50,165,85,right,change,catch,clock,2,1.1054001626771424,1,j,0,same,1.2485849141321523,0,0,0,0,0.387472128069021,0,0,7.375021489291612
7,22,female,51,135,135,left,same,valid,clock,2,1.0959852872119882,1,j,1,same,1.8402396280489484,0.16349773765071962,0,0,0,0.38743331904970546,0,0,5.6166159690446875
7,22,female,52,105,105,right,same,valid,clock,2,2.0654672862428924,1,j,1,same,0.7925144780092523,0.16277066647492688,0,0,0,0.38752569092866906,0,0,6.351812413241532
7,22,female,53,75,75,left,same,valid,anti,2,1.1014063618567889,1,j,1,same,0.9964796050580844,0.1620399739265614,0,0,0,0.38739707591685146,0,0,5.480680164934711
7,22,female,54,75,125,right,change,valid,clock,1,0.9454749325814191,0,f,1,change,1.1997952423353127,0.16130125632522624,0,0,0,0.38750965414419625,0,0,5.588511183411356
7,22,female,55,75,25,left,change,valid,anti,1,1.0173611022019031,0,f,1,change,2.222205045044575,0.16325472005133695,0,0,0,0.3874977869236318,0,0,6.474455005914024
7,22,female,56,135,135,left,same,valid,anti,2,2.345466978335935,1,j,1,same,3.0354275021873036,0.16509427657438291,0,0,0,0.3874422996495923,0,0,8.719374231837719
7,22,female,57,135,185,left,change,valid,clock,1,2.265450479692845,0,f,1,change,1.9195594887723928,0.1644449324407367,0,0,0,0.38742305550749734,0,0,7.126056824101397
7,22,female,58,45,355,right,change,valid,anti,2,1.481323881465869,1,j,0,same,0.9917227740297676,0.1662349239287736,0,0,0,0.3874079809302202,0,0,5.4831883180368095
7,22,female,1,45,95,left,change,valid,clock,1,1.823510695893674,0,j,0,same,1.43686285854983,0.16558583081361977,0,0,0,0.38744294112075295,0,0,6.001026354209898
7,22,female,2,75,185,left,same,catch,clock,1,7.617456296555247,0,j,1,same,3.0030370462554856,0,0,0,0,0.38749425883088406,0,0,15.392674781707683
7,22,female,3,165,165,left,same,valid,clock,2,1.4003948897816372,1,j,1,same,1.1036499080137219,0.16749940064222624,0,0,0,0.387457694961995,0,0,5.280389065222153
7,22,female,4,75,25,left,change,valid,anti,1,3.305417354110432,0,f,1,change,1.8470257537928774,0.16683757625946344,0,0,0,0.3874653926195606,0,0,8.557637807297397
7,22,female,5,45,355,left,change,valid,anti,2,0.8654407934745905,1,f,1,change,1.3304337757772373,0.16876983672329,0,0,0,0.3874442240630742,0,0,5.288336895637258
7,22,female,6,45,45,right,same,valid,anti,1,1.1295053742469463,0,j,1,same,0.6862095199485339,0.16808288332131932,0,0,0,0.38739515150246007,0,0,4.950958550685755
7,22,female,7,45,45,right,same,valid,clock,2,0.8813797536231505,1,j,1,same,2.3364687385337675,0.17007000624067875,0,0,0,0.38752889828538173,0,0,6.372451113466013
7,22,female,8,135,185,right,change,valid,clock,2,1.2414446961865906,1,j,0,same,1.5260556053053733,0.16934583575812506,0,0,0,0.3874394130280052,0,0,5.6696935562913495
7,22,female,9,75,75,right,same,valid,anti,1,0.809443228499731,0,f,0,change,0.8065639842043311,0.1686532577681702,0,0,0,0.38745160098460474,0,0,5.006428505448639
7,22,female,10,75,75,left,same,valid,anti,2,0.7691684478186289,1,j,1,same,0.8171319044768097,0.17062691691801507,0,0,0,0.3875404447708206,0,0,4.469700420036133
7,22,female,11,105,55,right,change,valid,anti,2,0.7294918392008185,1,j,0,same,0.7834148857282344,0.16991423641905645,0,0,0,0.3874509595125346,0,0,4.518842580357159
7,22,female,12,135,135,left,same,valid,clock,2,1.3134694236250652,1,j,1,same,0.8829683574995215,0.16921364150559193,0,0,0,0.38749073073813634,0,0,5.2172785448346986
7,22,female,13,45,45,left,same,valid,anti,1,1.6575007890096458,0,j,1,same,0.5422505125352473,0.16854320360561748,0,0,0,0.3874111882869329,0,0,5.077700786957394
7,22,female,14,45,355,right,change,valid,anti,2,1.1374474314206964,1,f,1,change,0.8305851630229881,0.17046465416768164,0,0,0,0.38745737422686943,0,0,4.9506432675016185
7,22,female,15,135,85,right,change,valid,anti,2,0.8334692183543666,1,f,1,change,0.6748756828465048,0.16976682643136232,0,0,0,0.3874775805752506,0,0,4.612043240303137
7,22,female,16,165,165,left,same,valid,anti,2,1.385376120329056,1,j,1,same,0.42531893957038847,0.16908874234243493,0,0,0,0.38748014646080264,0,0,4.5608041100358605
7,22,female,17,165,215,left,change,valid,clock,1,1.2814455685875146,0,f,1,change,1.7600492906613,0.16843914278810113,0,0,0,0.3874329983136704,0,0,5.939718689140136
7,22,female,18,105,55,left,change,valid,anti,2,1.1374660340898117,1,j,0,same,0.8348964921779043,0.1703091366591678,0,0,0,0.38744390332794865,0,0,5.354367714488944
7,22,female,19,15,45,right,change,catch,anti,2,1.417447123513739,1,j,0,same,0.5332856292452561,0,0,0,0,0.3874099053446116,0,0,6.516895073243177
7,22,female,20,105,55,right,change,catch,clock,1,0.8324989928896684,0,f,1,change,1.0269543067106497,0,0,0,0,0.38749522103807976,0,0,6.59537877602088
7,22,female,21,45,95,right,change,valid,clock,1,1.0323673629618497,0,f,1,change,0.7667664582313591,0.16962745118527356,0,0,0,0.38744967657021334,0,0,5.303530466042503
7,22,female,22,165,115,left,change,valid,anti,1,0.9294445627601817,0,j,0,same,2.0292777160539117,0.1714650704187553,0,0,0,0.38743620567129256,0,0,5.8870224566308025
7,22,female,23,15,15,left,same,valid,clock,2,1.0014939868478905,1,j,1,same,0.5161605885114113,0.17314376117553598,0,0,0,0.3874644304123649,0,0,4.683998047361456
7,22,female,24,105,105,right,same,valid,clock,2,1.0174380787675545,1,j,1,same,0.8445573719172899,0.17253552102339414,0,0,0,0.38748880632465443,0,0,5.051314503154572
7,22,female,25,75,45,left,same,catch,anti,1,0.7934333857629099,0,f,0,change,0.5887154920474131,0,0,0,0,0.38748110866799834,0,0,6.033420658970499
7,22,female,26,15,65,left,change,valid,clock,2,1.063458839346822,1,j,0,same,2.1422081112768865,0.17192176712872032,0,0,0,0.3874349227289713,0,0,6.420467491513591
7,22,female,27,135,85,left,change,valid,anti,1,0.8971333285435321,0,f,1,change,0.7131673547519313,0.1712993813418624,0,0,0,0.38740958460857655,0,0,5.0003819962075795
7,22,female,28,105,155,right,change,valid,clock,2,0.6495106214833868,1,f,1,change,1.0150729737842994,0.17294862221903157,0,0,0,0.38742209330030164,0,0,4.511185336477865
7,22,female,29,165,115,right,change,valid,anti,1,2.0494195966939515,0,j,0,same,1.762481429403124,0.17235336002263735,0,0,0,0.38739515150246007,0,0,7.001565510906403
7,22,female,30,75,75,left,same,valid,clock,2,0.9454701215463501,1,j,1,same,0.8109253481270571,0.17391826995729393,0,0,0,0.3874644304114554,0,0,4.907845579877176
7,22,female,31,135,135,right,same,valid,anti,2,1.009484475109275,1,j,1,same,0.5974552188827147,0.1733411163748947,0,0,0,0.38744197891355725,0,0,4.511500619661092
7,22,female,32,105,15,right,same,catch,clock,2,3.377286845474373,1,j,1,same,5.258463252670481,0,0,0,0,0.38746859997536376,0,0,13.364490774358273
7,22,female,33,15,325,right,change,valid,anti,2,1.3196971485313043,1,f,1,change,1.3192057814530926,0.17276234681110114,0,0,0,0.38745705349083437,0,0,5.432100575014374
7,22,female,34,75,75,right,same,valid,clock,2,1.0734202484291018,1,j,1,same,1.0015103443674889,0.17217909634010087,0,0,0,0.38749137220929697,0,0,5.393070569549309
7,22,female,35,135,135,right,same,valid,clock,2,0.697423081166562,1,j,1,same,1.5661187004307067,0.17158851537558267,0,0,0,0.387474693954573,0,0,5.762606837058229
7,22,female,36,135,135,left,same,valid,anti,2,0.7854990262467254,1,j,1,same,0.7310663307071081,0.17098774295923075,0,0,0,0.3875702731893398,0,0,4.51717475476562
7,22,female,37,135,185,left,change,valid,clock,2,1.8654549058455814,1,j,0,same,1.062482199169608,0.17037388067017362,0,0,0,0.38740862240229035,0,0,5.943576177292925
7,22,female,38,45,25,left,change,catch,anti,2,0.809484282667654,1,j,0,same,1.0066780378165276,0,0,0,0,0.38748399528958544,0,0,6.454768569955377
7,22,female,39,15,65,right,change,valid,clock,1,1.024396118840741,0,f,1,change,1.6932208021471524,0.16974688760813134,0,0,0,0.3874557705485131,0,0,6.11416105806893
7,22,female,40,75,125,right,change,catch,clock,2,1.7773545848531285,1,j,0,same,3.8488789646135046,0,0,0,0,0.3874721280681115,0,0,10.462960159495196
7,22,female,41,75,125,left,change,valid,clock,2,1.320399559694124,1,f,1,change,1.268571558698568,0.17143185851666387,0,0,0,0.3874779013112857,0,0,5.753226921783607
7,22,female,42,45,45,left,same,valid,clock,2,2.2094538769242718,1,j,1,same,0.7768734813162155,0.170840757717158,0,0,0,0.3874002832735641,0,0,6.435389398787265
7,22,female,43,105,105,right,same,valid,anti,1,0.8974434799565643,0,f,0,change,0.6164475828072682,0.17023599508213505,0,0,0,0.3875853477666169,0,0,4.662504265784264
7,22,female,44,45,85,left,change,catch,clock,1,0.8654221908045656,0,f,1,change,0.8689387369167889,0,0,0,0,0.38753819962130365,0,0,6.236126577698997
7,22,female,45,165,215,right,change,valid,clock,1,0.9284348868059169,0,f,1,change,0.6874382583791885,0.17185177471743784,0,0,0,0.38753916182758985,0,0,4.955609859671313
7,22,female,46,165,165,right,same,valid,clock,1,1.3693678812715007,0,f,0,change,1.976682836022519,0.17333577665051642,0,0,0,0.3874519217197303,0,0,6.216315054819461
7,22,female,47,165,85,right,change,catch,clock,1,0.7452001903884593,0,f,1,change,2.311576120842801,0,0,0,0,0.3874548083404079,0,0,7.796395700601352
7,22,female,48,15,325,left,change,valid,anti,2,0.9121966802576935,1,f,1,change,1.1688031940147994,0.17474211024786196,0,0,0,0.3875215213647607,0,0,5.637512220029748
7,22,female,49,15,15,right,same,valid,clock,1,1.1935306328241495,0,f,0,change,1.0682958542984125,0.17421295695288042,0,0,0,0.3874474314206964,0,0,5.515971354453541
7,22,female,50,135,45,left,same,catch,clock,2,0.6494461536094605,1,j,1,same,1.2735391130763674,0,0,0,0,0.38751927621524374,0,0,7.047838369739111
7,22,female,51,75,25,right,change,valid,anti,1,1.072227111659231,0,j,0,same,2.384435723284696,0.17558375972417256,0,0,0,0.3874310739001885,0,0,6.891251677448054
7,22,female,52,105,105,left,same,valid,anti,2,0.8814394104620078,1,j,1,same,0.9734687436657623,0.17706167630841613,0,0,0,0.3875337093204507,0,0,5.01087133623605
7,22,female,53,75,125,right,change,valid,clock,1,2.137391623410622,0,j,0,same,1.553275481167475,0.17655234522940105,0,0,0,0.3874852782319067,0,0,6.7699545709965605
7,22,female,54,105,105,left,same,valid,clock,1,0.9132672959931369,0,j,1,same,0.8313408163112399,0.17804577911835118,0,0,0,0.38737334147572255,0,0,4.558608994968381
7,22,female,55,15,15,left,same,valid,anti,2,0.9693873820015142,1,f,0,change,1.2489669103406413,0.17962531071011467,0,0,0,0.3874499973053389,0,0,5.114139568777318
7,22,female,56,15,15,right,same,valid,anti,2,0.9054827200443469,1,j,1,same,0.6352224879337882,0.17905124293044933,0,0,0,0.3875186347440831,0,0,4.772209663638023
7,22,female,57,165,165,right,same,valid,anti,2,0.5614433362670752,1,j,1,same,0.5768838731528376,0.17850035670167863,0,0,0,0.38746218526193843,0,0,3.8694932889266056
7,22,female,58,105,155,left,change,valid,clock,2,0.5214402187166343,1,f,1,change,0.9853215311150052,0.17796979449134664,0,0,0,0.38749618324527546,0,0,4.647218323501875
7,22,female,1,45,45,right,same,valid,clock,2,2.344310726171898,1,j,1,same,1.396096069320265,0.17745691294906707,0,0,0,0.38743813008477446,0,0,6.849129779924624
7,22,female,2,135,85,right,change,valid,anti,2,0.8254412040159878,1,f,1,change,0.6490301594185439,0.176959254803717,0,0,0,0.38747244880414655,0,0,4.564327391597544
7,22,female,3,45,25,left,change,catch,anti,1,0.8014472877302978,0,f,1,change,0.8847006509649873,0,0,0,0,0.3875147859162098,0,0,6.04888428882623
7,22,female,4,75,75,right,same,valid,anti,1,0.7603767618011261,0,f,0,change,0.5014574229790014,0.17647452376181244,0,0,0,0.38754782169144164,0,0,4.26581451470156
7,22,female,5,75,125,left,change,valid,clock,2,0.8574031570651641,1,j,0,same,0.7870978936643951,0.17789720254817087,0,0,0,0.38749361735972343,0,0,4.301719913067245
7,22,female,6,15,325,left,change,valid,anti,2,0.8174173592424268,1,f,1,change,0.964928193693595,0.1773970375342766,0,0,0,0.38750580531632295,0,0,4.634315447400695
7,22,female,7,165,85,right,change,catch,clock,2,0.9214438109556795,1,j,0,same,1.528169894977509,0,0,0,0,0.38746859997536376,0,0,7.156907748717458
7,22,female,8,45,45,left,same,valid,clock,2,0.6244374295984016,1,j,1,same,0.6366741376696154,0.1769114254348696,0,0,0,0.38742947022092267,0,0,4.789961101176232
7,22,female,9,165,165,right,same,valid,anti,2,0.36147970769434323,1,j,1,same,0.559268748284012,0.1764381775829192,0,0,0,0.38750869193700055,0,0,3.775623895066019
7,22,female,10,45,45,right,same,valid,anti,2,0.4494010581711336,1,j,1,same,2.22981963107668,0.17597523466715165,0,0,0,0.3874727695392721,0,0,5.799055882420362
7,22,female,11,135,85,left,change,valid,anti,1,0.8814682766742408,0,f,1,change,0.9249379055700047,0.17552064784260146,0,0,0,0.3875141444441397,0,0,4.586419345237118
7,22,female,12,165,165,left,same,valid,anti,2,0.5374282514258084,1,j,1,same,0.42551138098588126,0.17686565682105015,0,0,0,0.3873531351273414,0,0,3.8068808710668236
7,22,female,13,75,75,left,same,valid,anti,2,0.2814683408214478,1,j,1,same,0.7243395410660014,0.17640339493162704,0,0,0,0.38746763776907756,0,0,4.039160544891274
7,22,female,14,105,105,right,same,valid,clock,2,0.2734740037312804,1,j,1,same,0.6503156680673783,0.17595100309806588,0,0,0,0.3875622547975581,0,0,4.077776801315849
7,22,female,15,15,325,right,change,valid,anti,2,0.6654043579001154,1,f,1,change,1.021859740999389,0.17550661739820417,0,0,0,0.3874698829185945,0,0,4.668814740499329
7,22,female,16,15,65,right,change,valid,clock,1,1.2975060875633062,0,f,1,change,1.6427604181362767,0.1750684613515146,0,0,0,0.3874541668692473,0,0,6.114534394412658
7,22,female,17,165,215,left,change,valid,clock,2,0.4014857118663713,1,f,1,change,1.12982354405176,0.176370077602911,0,0,0,0.3874827123463547,0,0,4.8068317985062095
7,22,female,18,105,55,right,change,valid,anti,2,0.3773933297243275,1,f,1,change,1.05941692817305,0.17592779835319589,0,0,0,0.3874169615301071,0,0,4.576570514383093
7,22,female,19,75,25,left,change,valid,anti,1,1.1614868921742527,0,f,1,change,0.4831844692080267,0.17549319684346532,0,0,0,0.38747533542482415,0,0,4.700796899896886
7,22,female,20,165,165,right,same,valid,clock,2,0.32140282093405403,1,j,1,same,0.8938518816921714,0.1767797928195578,0,0,0,0.3874185652084634,0,0,4.315892902503947
7,22,female,21,45,95,right,change,valid,clock,2,0.2894501692198901,1,f,1,change,0.7835948184510926,0.17633813541511845,0,0,0,0.3874730902753072,0,0,4.225080440511192
7,22,female,22,45,45,left,same,valid,anti,2,0.24147676975553622,1,j,1,same,0.6728188048618904,0.1759055571422452,0,0,0,0.38744582774143055,0,0,4.140231417215546
7,22,female,23,165,115,left,change,valid,anti,2,0.48946447403250204,1,j,0,same,0.7855163459735195,0.17548034804619767,0,0,0,0.3874746939536635,0,0,4.3253507565514155
7,22,female,24,45,355,right,change,valid,anti,2,0.3133546002482035,1,f,1,change,1.2896301019427483,0.1750608753009656,0,0,0,0.3874750146896986,0,0,4.70658489617108
7,22,female,25,165,165,left,same,valid,clock,2,1.0494067672671008,1,j,1,same,1.3392889674614707,0.17464557034649925,0,0,0,0.3874727695401816,0,0,5.328721688660153
7,22,female,26,105,155,left,change,valid,clock,2,0.4654519550758778,1,j,0,same,1.4503546053792888,0.17420427811814215,0,0,0,0.3874910514741714,0,0,5.553013760844806
7,22,female,27,135,45,left,same,catch,clock,2,3.0334463178260194,1,j,1,same,0.37419944371595193,0,0,0,0,0.3875035601658965,0,0,7.905721026661922
7,22,female,28,75,75,left,same,valid,clock,1,0.920094796641024,0,f,0,change,1.0304791919515992,0.173763933322167,0,0,0,0.38750388090193155,0,0,5.21557479684634
7,22,female,29,75,125,right,change,catch,clock,2,0.5454450400147834,1,f,1,change,0.7396739144378444,0,0,0,0,0.3875311434358082,0,0,6.002288449152729
7,22,female,30,135,135,right,same,valid,clock,2,0.32036780686121347,1,j,1,same,1.066804754072109,0.17491125076116065,0,0,0,0.38751735180085234,0,0,4.700109242576218
7,22,female,31,165,215,right,change,valid,clock,2,0.4814553831001831,1,f,1,change,2.064158043152929,0.17447673308360345,0,0,0,0.38749618324527546,0,0,5.499272892188856
7,22,female,32,45,95,left,change,valid,clock,2,0.321448686138865,1,j,0,same,1.2620083442598116,0.17404416429361053,0,0,0,0.3874750146896986,0,0,4.439070482309035
7,22,female,33,105,105,left,same,valid,anti,2,0.265470044569156,1,j,1,same,1.2522599036765314,0.17361182401525388,0,0,0,0.3875433313914982,0,0,4.52736260324491
7,22,female,34,135,135,left,same,valid,clock,1,0.5054467334994115,0,f,0,change,0.7340087599332037,0.173178019976938,0,0,0,0.38758021599642234,0,0,4.07434653310429
7,22,female,35,135,185,right,change,valid,clock,2,0.4014254135563533,1,f,1,change,0.9158768015722671,0.1743143782062921,0,0,0,0.38745160098369524,0,0,4.377263431769279
7,22,female,36,75,75,right,same,valid,clock,1,0.633519702151716,0,f,0,change,1.3138097241926516,0.1738899539473568,0,0,0,0.3874920136813671,0,0,4.968299767274402
7,22,female,37,135,135,right,same,valid,anti,1,0.5214751789062575,0,f,0,change,1.0509774099436981,0.1749948920712892,0,0,0,0.38749457956691913,0,0,4.510056667581921
7,22,female,38,15,65,left,change,valid,clock,2,0.3454031519331693,1,j,0,same,0.8753117550913885,0.17608584244369446,0,0,0,0.3874224140363367,0,0,4.504452773593584
7,22,female,39,105,155,right,change,valid,clock,2,0.40934566070245637,1,f,1,change,1.233490771792276,0.1756877898520488,0,0,0,0.3874689207113988,0,0,4.826626001657132
7,22,female,40,105,55,left,change,valid,anti,1,1.0494798950039694,0,f,1,change,1.0020571987206495,0.17529561327841692,0,0,0,0.38741439564455504,0,0,5.124034906306406
7,22,female,41,135,185,left,change,valid,clock,2,0.9534314228612857,1,f,1,change,1.5160771972323346,0.1764593457378018,0,0,0,0.38743909229197016,0,0,5.982818830520955
7,22,female,42,135,135,left,same,valid,anti,1,0.5693549235493265,0,f,0,change,1.8878579731044738,0.17606223614819333,0,0,0,0.3874949003029542,0,0,5.551116288497724
7,22,female,43,15,45,right,change,catch,anti,2,0.8814795024227351,1,f,1,change,2.1100764890479695,0,0,0,0,0.38748784411745874,0,0,7.296624064414573
7,22,female,44,45,355,left,change,valid,anti,2,0.9359314421044473,1,f,1,change,2.3320361712876547,0.1772330443427419,0,0,0,0.3874625059979735,0,0,6.653936774014255
7,22,female,45,15,15,right,same,valid,clock,2,0.7854105031956351,1,j,1,same,1.1216143140482018,0.17682600215484845,0,0,0,0.3874730902762167,0,0,4.678717454949037
7,22,female,46,75,25,right,change,valid,anti,2,4.385332821011616,1,j,0,same,1.630166089769773,0.17642864940408498,0,0,0,0.38752216283592134,0,0,9.221748958892022
7,22,female,47,15,15,right,same,valid,anti,3,0.40145748712529894,1,j,1,same,0.9430969981704038,0.1760395062946558,0,0,0,0.38745641201967373,0,0,4.249024642765107
7,22,female,48,15,15,left,same,valid,clock,3,0.5454630012136477,1,j,1,same,0.8686603383375768,0.17565716524862163,0,0,0,0.3875160688576216,0,0,4.644458072147245
7,22,female,49,75,125,right,change,valid,clock,2,0.5534166048710176,1,f,1,change,1.3719106738271876,0.175280280524781,0,0,0,0.3875263324007392,0,0,4.993816536618397
7,22,female,50,105,55,right,change,catch,clock,2,0.5375174159480594,1,f,1,change,1.1345014741009436,0,0,0,0,0.3874461484774656,0,0,6.330168527360911
7,22,female,51,45,85,left,change,catch,clock,2,0.47245169078996696,1,f,1,change,1.0391611863624348,0,0,0,0,0.38747693910409,0,0,6.5329514226559695
7,22,female,52,75,45,left,same,catch,anti,1,0.344272879359778,0,f,0,change,0.79212863297289,0,0,0,0,0.3874827123463547,0,0,6.1740815412767915
7,22,female,53,15,15,left,same,valid,anti,1,1.223998599026345,0,f,0,change,1.16990107228321,0.17490755863742635,0,0,0,0.38744582774234004,0,0,5.427873278611514
7,22,female,54,165,115,right,change,valid,anti,1,0.8413551467820071,0,f,1,change,3.7654985900462634,0.17593580702920641,0,0,0,0.38753531299971655,0,0,7.990374080450238
7,22,female,55,105,15,right,same,catch,clock,1,0.3854758691295501,0,f,0,change,0.399257881759695,0,0,0,0,0.3874740524825029,0,0,5.362914358438502
7,22,female,56,105,105,left,same,valid,clock,2,0.5524194376093874,1,j,1,same,1.1277211216001888,0.17705883361894126,0,0,0,0.38747918425360695,0,0,4.698171036797248
7,22,female,57,105,105,right,same,valid,anti,2,0.8174423766258769,1,j,1,same,0.6156338763603344,0.1766697015071017,0,0,0,0.3874692414474339,0,0,4.46541122164399
7,22,female,58,75,185,left,same,catch,clock,2,0.4494405086616098,1,f,0,change,1.4051161191491701,0,0,0,0,0.38747148659695085,0,0,6.095999078846944
7,22,female,1,165,165,left,same,valid,clock,1,0.928067644440489,0,f,0,change,0.6396710919634643,0.17628929007888933,0,0,0,0.38745833643406513,0,0,4.3690891619562535
7,22,female,2,135,45,left,same,catch,clock,1,0.8494335166224118,0,f,0,change,1.1668322731948138,0,0,0,0,0.3874965039813105,0,0,6.423546874879321
7,22,female,3,75,125,left,change,valid,clock,2,0.6564032314763608,1,f,1,change,0.7930696714893202,0.17740906391766575,0,0,0,0.38751638959365664,0,0,4.892004444113809
7,22,female,4,45,45,left,same,valid,anti,2,0.5853891421993467,1,j,1,same,2.479416466314433,0.17701780767235442,0,0,0,0.38739643444569083,0,0,6.064004731492787
7,22,female,5,135,135,right,same,valid,anti,2,0.32943372189402,1,j,1,same,0.6934886164490308,0.17663634644561826,0,0,0,0.38742497992188873,0,0,4.113984974173945
7,22,female,6,75,75,left,same,valid,clock,2,0.28144204049476684,1,j,1,same,0.6809209091452431,0.1762633018326426,0,0,0,0.3874451862702699,0,0,3.9379453415067474
7,22,female,7,135,135,left,same,valid,anti,2,0.6810184127944012,1,j,1,same,1.4546136546168782,0.17589736430144187,0,0,0,0.3874804671968377,0,0,5.229509158927613
7,22,female,8,75,75,right,same,valid,anti,2,0.4734494995245768,1,j,1,same,0.7141414290445027,0.17553728386453837,0,0,0,0.38753242637812946,0,0,4.426071064764983
7,22,female,9,15,15,right,same,valid,clock,2,0.36143095586976415,1,j,1,same,0.8191650480202952,0.17518186147437426,0,0,0,0.3874406959703265,0,0,4.266210944014347
7,22,female,10,105,15,right,same,catch,clock,1,1.225507981186638,0,f,0,change,0.1828270413543578,0,0,0,0,0.3875138237081046,0,0,6.127100498038089
7,22,female,11,45,25,left,change,catch,anti,2,0.5601475640760327,1,j,0,same,2.11392852469271,0,0,0,0,0.3874426203847179,0,0,7.171459206268992
7,22,female,12,45,95,left,change,valid,clock,2,0.4804476315594002,1,j,0,same,1.0189718368410468,0.17482994104344607,0,0,0,0.3874262628651195,0,0,4.904386445453383
7,22,female,13,165,165,right,same,valid,clock,2,0.4014578078604245,1,f,0,change,1.5312457502514008,0.17445620390137884,0,0,0,0.3874435825910041,0,0,5.052650688041467
7,22,female,14,135,85,right,change,valid,anti,2,0.3374251723635098,1,j,0,same,0.7966699296175648,0.1740836466345439,0,0,0,0.38739643444569083,0,0,4.036990447208154
7,22,female,15,105,155,left,change,valid,clock,1,0.9533801051511546,0,f,1,change,1.2971750883316417,0.17371096470588115,0,0,0,0.38746667556188186,0,0,5.363162928599195
7,22,female,16,15,65,left,change,valid,clock,2,0.5133968090649432,1,j,0,same,2.5540173428216804,0.1746838688793314,0,0,0,0.387394830766425,0,0,6.379038383081934
7,22,female,17,15,15,right,same,valid,anti,2,0.28942483110040484,1,j,1,same,0.621924786197269,0.17431677532361456,0,0,0,0.38750195648754016,0,0,4.069327340281234
7,22,female,18,105,155,right,change,valid,clock,2,0.23349750724264595,1,f,1,change,1.042170007876848,0.17395031645254388,0,0,0,0.3874827123454452,0,0,4.436663040214626
7,22,female,19,75,125,right,change,catch,clock,2,0.5454700573991431,1,f,1,change,1.2232920182996168,0,0,0,0,0.3874702036537201,0,0,6.299007130595783
7,22,female,20,135,185,right,change,valid,clock,2,0.26442925725132227,1,f,1,change,1.3972696412129153,0.17358323292303945,0,0,0,0.3874750146896986,0,0,5.133264396543382
7,22,female,21,15,325,right,change,valid,anti,2,0.26554605892852123,1,f,1,change,0.8819403996112669,0.17321427815835205,0,0,0,0.3874759768968943,0,0,3.8876658524241066
7,22,female,22,165,85,right,change,catch,clock,2,0.5214014096964092,1,j,0,same,2.5401394302189146,0,0,0,0,0.38749041000301077,0,0,7.687262495221148
7,22,female,23,15,15,left,same,valid,anti,1,1.1924077371713793,0,f,0,change,0.7018245370509248,0.17284221049012988,0,0,0,0.38752376651609666,0,0,5.1094600350497785
7,22,female,24,75,185,left,same,catch,clock,1,0.47341004903319117,0,f,0,change,1.434418852588351,0,0,0,0,0.3874708451257902,0,0,6.548384582620201
7,22,female,25,135,135,left,same,valid,clock,2,0.41583959623312694,1,j,1,same,0.5308461135809921,0.17382117577282324,0,0,0,0.3875122200297483,0,0,4.309717457515944
7,22,female,26,105,105,right,same,valid,anti,1,1.0733913822168688,0,f,0,change,1.8677196205571818,0.17345934594766177,0,0,0,0.3875317849069688,0,0,6.03350372951536
7,22,female,27,75,45,left,same,catch,anti,1,0.649368856307774,0,f,0,change,2.148909562798508,0,0,0,0,0.3874702036555391,0,0,7.531171018836176
7,22,female,28,165,215,right,change,valid,clock,2,0.2961217923220829,1,f,1,change,0.7958113201730157,0.1744063422920265,0,0,0,0.38748207087519404,0,0,4.6113526963599725
7,22,female,29,15,65,right,change,valid,clock,2,0.9853051735935878,1,f,1,change,3.1470788034748693,0.1740513367114242,0,0,0,0.38750195648935915,0,0,7.312210856774982
7,22,female,30,165,165,left,same,valid,anti,2,0.4734652155730146,1,j,1,same,1.6601625745061028,0.1736959744522777,0,0,0,0.38740188695373945,0,0,5.225808510529532
7,22,female,31,75,125,right,change,valid,clock,2,0.24947495567357691,1,f,1,change,0.7211767664193758,0.17333907634709,0,0,0,0.38750195648754016,0,0,3.9029415311651974
7,22,female,32,15,325,left,change,valid,anti,2,0.20143997495688382,1,f,1,change,0.9555649566755164,0.17297946914807072,0,0,0,0.38749265515252773,0,0,4.377825681434842
7,22,female,33,45,355,right,change,valid,anti,1,0.5770650888189266,0,f,1,change,2.2259592563041224,0.1726159784691857,0,0,0,0.3875122200297483,0,0,6.112593302012101
7,22,female,34,45,45,right,same,valid,clock,2,0.3375383920611057,1,j,1,same,1.0795145472893637,0.17357448054027352,0,0,0,0.3875054845793784,0,0,4.36412866376304
7,22,female,35,45,45,right,same,valid,anti,1,0.4414994136950554,0,f,0,change,0.36503025179081305,0.17322221296553364,0,0,0,0.38747148659786035,0,0,3.818441147566773
7,22,female,36,15,15,left,same,valid,clock,1,0.5373381246972713,0,f,0,change,2.8957679567083687,0.1741463948215357,0,0,0,0.3874625059979735,0,0,6.419076140087782
7,22,female,37,45,95,right,change,valid,clock,2,1.1134259318660042,1,f,1,change,0.8192160449962103,0.1750419202306131,0,0,0,0.38742882874976203,0,0,5.2620756987544155
7,22,female,38,105,105,left,same,valid,clock,1,0.7134794305802643,0,f,0,change,0.5000885230510903,0.17472280588553768,0,0,0,0.3874422996486828,0,0,4.427807207059232
7,22,female,39,165,215,left,change,valid,clock,2,0.3613902224369667,1,f,1,change,1.6952699824742012,0.17560565869434236,0,0,0,0.38745801569893956,0,0,4.883988938467155
7,22,female,40,135,185,left,change,valid,clock,2,0.2974528454396932,1,f,1,change,1.6230114387180947,0.17528641547041335,0,0,0,0.3874833538175153,0,0,4.568289760320113
7,22,female,41,75,75,left,same,valid,anti,2,0.38538798754962045,1,f,0,change,0.7892558033909154,0.17497041919891126,0,0,0,0.38749810765875736,0,0,4.1240137377499195
7,22,female,42,45,85,left,change,catch,clock,1,0.5214790277350403,0,f,1,change,0.3959090804128209,0,0,0,0,0.3875577644994337,0,0,5.518679646625969
7,22,female,43,105,55,right,change,catch,clock,2,0.29620037256609066,1,j,0,same,1.613042973451229,0,0,0,0,0.38743748861270433,0,0,6.4860649964448385
7,22,female,44,165,115,left,change,valid,anti,1,0.503621747418947,0,f,1,change,2.235549253455247,0.17463507569658504,0,0,0,0.38749810765875736,0,0,6.117369697918548
7,22,female,45,75,75,right,same,valid,clock,2,0.28142664518236415,1,j,1,same,0.8823169433107978,0.17550360627090766,0,0,0,0.3874394130289147,0,0,4.16877817663044
7,22,female,46,45,355,left,change,valid,anti,2,0.27337617934426817,1,j,0,same,2.833977905158463,0.17519030224622734,0,0,0,0.3874532046611421,0,0,6.3135431928330945
7,22,female,47,135,135,right,same,valid,clock,2,1.3694041244052642,1,j,1,same,0.922502559469649,0.17487989216312166,0,0,0,0.3874329983136704,0,0,5.546832221876684
7,22,female,48,105,55,left,change,valid,anti,1,0.35347382411782746,0,f,1,change,0.4795678535592742,0.17455014529901114,0,0,0,0.3875224835719564,0,0,3.551615353231682
7,22,female,49,105,105,left,same,valid,anti,2,0.41746219809101603,1,j,1,same,0.8555274947466387,0.17540496480756718,0,0,0,0.38743075316415343,0,0,4.265033844030768
7,22,female,50,75,25,left,change,valid,anti,1,0.953459647602358,0,f,1,change,0.9679899365983147,0.17509733531560134,0,0,0,0.38750099428034446,0,0,5.181282057532371
7,22,female,51,135,85,left,change,valid,anti,1,0.7934128586784936,0,f,1,change,1.355785366242344,0.17601305105556236,0,0,0,0.3874166407949815,0,0,5.136506713639392
7,22,female,52,165,115,right,change,valid,anti,2,1.1374329983154894,1,j,0,same,1.0162494322976272,0.17694408058981353,0,0,0,0.38747148659604136,0,0,5.346536952600218
7,22,female,53,105,105,right,same,valid,clock,1,0.2974977484354895,0,f,0,change,0.32093390535374056,0.1766212143566694,0,0,0,0.38751735180085234,0,0,4.058816510960241
7,22,female,54,45,45,left,same,valid,clock,2,0.4813399182512512,1,j,1,same,3.151569744615699,0.17756967853819133,0,0,0,0.387440695971236,0,0,6.729602493014681
7,22,female,55,15,45,right,change,catch,anti,1,0.2574243897688575,0,f,1,change,0.5376219757836225,0,0,0,0,0.3874538461332122,0,0,5.424881776825714
7,22,female,56,75,25,right,change,valid,anti,2,3.6081607347678073,1,f,1,change,0.6711096043654834,0.17723592578971537,0,0,0,0.38748976853094064,0,0,7.366474203869075
7,22,female,57,165,165,right,same,valid,anti,2,0.22545922936114948,1,j,1,same,0.8512562575542688,0.17691087227489838,0,0,0,0.38747693910409,0,0,4.065995217189993
7,22,female,58,105,55,right,change,valid,anti,1,0.3055539875149407,0,f,1,change,0.02741616610546771,0.17659348593481233,0,0,0,0.3874910514750809,0,0,3.4006235743308935
7,22,female,1,45,25,left,change,catch,anti,1,1.6643539485121437,0,f,1,change,1.7158653833830613,0,0,0,0,0.3875337093213602,0,0,7.912162361539231
7,22,female,2,165,115,right,change,valid,anti,2,0.6635437701588671,1,f,1,change,1.1746870902607043,0.1775261076420001,0,0,0,0.38749810766057635,0,0,4.707426185888835
7,22,female,3,135,185,left,change,valid,clock,2,0.31347327245202905,1,f,1,change,0.7631161653353047,0.17719815003639833,0,0,0,0.3874775805743411,0,0,4.129624687922842
7,22,female,4,75,75,right,same,valid,anti,2,0.24150788111728616,1,f,0,change,1.1219594256508572,0.17687863564444078,0,0,0,0.38745160098369524,0,0,4.522723802949258
7,22,female,5,105,55,right,change,valid,anti,2,0.2174466103369923,1,f,1,change,1.2132837818080588,0.17656656495049294,0,0,0,0.3874557705494226,0,0,4.3812809670307615
7,22,female,6,105,155,left,change,valid,clock,2,0.5375068316716352,1,f,1,change,0.20934418531760457,0.1762609868891284,0,0,0,0.38741150902205845,0,0,3.6848066220372857
7,22,female,7,45,355,right,change,valid,anti,2,0.40931936037486594,1,f,1,change,0.9164762565796991,0.17596099313086128,0,0,0,0.38746186452590337,0,0,4.193673360206958
7,22,female,8,15,325,right,change,valid,anti,2,0.4014674299305625,1,j,0,same,0.804786787743069,0.17566571278778148,0,0,0,0.3874493558341783,0,0,4.372222749654611
7,22,female,9,45,45,right,same,valid,anti,2,0.2974871641581558,1,j,1,same,0.8594494507724448,0.1753743074880182,0,0,0,0.38750291869473585,0,0,4.138672641758603
7,22,female,10,165,165,right,same,valid,anti,2,1.8494665523976437,1,j,1,same,0.8324714096215757,0.17508596677282534,0,0,0,0.38752216283501184,0,0,5.875909606418645
7,22,female,11,75,75,left,same,valid,anti,1,0.47347868647193536,0,f,0,change,0.40261406002719013,0.17479990377432558,0,0,0,0.3875433313914982,0,0,3.497072645352091
7,22,female,12,45,45,right,same,valid,clock,2,0.37743759124896314,1,j,1,same,0.8908607006414968,0.1755912181909725,0,0,0,0.3875016357505956,0,0,4.217311259875714
7,22,female,13,135,45,left,same,catch,clock,1,0.5211140305182198,0,f,0,change,1.7332422016334021,0,0,0,0,0.38750580531632295,0,0,6.938480007902399
7,22,female,14,75,45,left,same,catch,anti,2,0.38366275026965013,1,j,1,same,2.532420925823317,0,0,0,0,0.38749714545338065,0,0,7.765528739200818
7,22,female,15,15,15,right,same,valid,anti,1,0.3764975149406382,0,f,0,change,0.48760933879748336,0.17530480381860986,0,0,0,0.38747052439066465,0,0,3.882256003531438
7,22,female,16,135,135,right,same,valid,clock,2,0.3054481447361468,1,j,1,same,0.9016739837170462,0.1761560788568533,0,0,0,0.387411829759003,0,0,4.180604022281841
7,22,female,17,105,105,right,same,valid,anti,2,0.26542963187239366,1,j,1,same,0.856534604816261,0.17586631839151035,0,0,0,0.3874625059979735,0,0,4.382289360042705
7,22,female,18,105,105,left,same,valid,clock,2,0.27342012013650674,1,j,1,same,1.320933584618615,0.1755808436288373,0,0,0,0.38742465918767266,0,0,4.84578033710568
7,22,female,19,75,125,left,change,valid,clock,2,0.3214156503618142,1,f,1,change,1.744927885787547,0.1752988677780571,0,0,0,0.3874836745526409,0,0,5.08866160845173
7,22,female,20,45,355,left,change,valid,anti,2,0.37731827757306746,1,j,0,same,4.687079675877612,0.17501962885542666,0,0,0,0.3874301116920833,0,0,7.769566160075556
7,22,female,21,165,165,right,same,valid,clock,2,0.2974576564738527,1,j,1,same,0.8443530632830516,0.17474238576833512,0,0,0,0.38747533542482415,0,0,4.359515201587783
7,22,female,22,45,85,left,change,catch,clock,1,0.36951285380200716,0,f,1,change,0.29468361348517647,0,0,0,0,0.38751735180085234,0,0,5.362742123374119
7,22,female,23,165,165,left,same,valid,clock,2,0.5281897805907647,1,f,0,change,0.777209612320803,0.1744472709568748,0,0,0,0.3875359544708772,0,0,4.678375550704004
7,22,female,24,75,125,right,change,valid,clock,1,2.1054078603337985,0,j,0,same,0.8724572074443131,0.17415260520380266,0,0,0,0.3874997113380232,0,0,5.940688593869709
7,22,female,25,15,15,right,same,valid,clock,1,0.4014148292790196,0,f,0,change,1.3177393778769328,0.17491999384785378,0,0,0,0.38747052439066465,0,0,5.163718571109712
7,22,female,26,165,215,left,change,valid,clock,2,0.36944806519386475,1,f,1,change,0.939945128538966,0.17567891231317034,0,0,0,0.38745320466296107,0,0,4.1834954545338405
7,22,female,27,105,155,right,change,valid,clock,2,0.5134032237783686,1,f,1,change,2.2084714635038836,0.17540344967130012,0,0,0,0.38744294112075295,0,0,5.913468718006698
7,22,female,28,45,95,left,change,valid,clock,2,0.29738003843704064,1,j,0,same,1.6499070507979923,0.17513089305121954,0,0,0,0.387484316024711,0,0,4.751545625294966
7,22,female,29,135,135,left,same,valid,clock,1,0.44941035950614605,0,f,0,change,0.37110498577203543,0.17486052968150606,0,0,0,0.3875128614999994,0,0,3.688150933085126
7,22,female,30,105,55,left,change,valid,anti,2,0.3694220856032189,1,f,1,change,1.096717206059111,0.17560817513586324,0,0,0,0.3874464692125912,0,0,4.397448611727668
7,22,female,31,45,95,right,change,valid,clock,2,0.41712478414410725,1,f,1,change,1.2736600304306194,0.17533726368298724,0,0,0,0.38747918425360695,0,0,4.716850683422308
7,22,female,32,75,75,right,same,valid,clock,1,0.873491259309958,0,f,0,change,0.396738823645137,0.17506903177963612,0,0,0,0.38745994011151197,0,0,4.228682943788954
7,22,female,33,45,45,left,same,valid,clock,1,0.3934224166023341,0,f,0,change,0.8130200729228818,0.17586820814514187,0,0,0,0.387486561174228,0,0,3.9035182139377866
7,22,female,34,15,15,left,same,valid,clock,2,0.2974489966109104,1,j,1,same,0.8671945762307587,0.1766792161179327,0,0,0,0.3875016357524146,0,0,4.354530968956169
7,22,female,35,165,85,right,change,catch,clock,1,0.4414282103716687,0,f,1,change,1.6100030405741563,0,0,0,0,0.3874596193763864,0,0,6.860354566892056
7,22,female,36,105,105,left,same,valid,anti,2,0.34427640745343524,1,f,0,change,1.5019988248241134,0.1763991213240526,0,0,0,0.387428828751581,0,0,5.207450241065089
7,22,female,37,15,65,left,change,valid,clock,2,0.23352637345487892,1,f,1,change,1.0688295584877778,0.17612440431608933,0,0,0,0.3874737317455583,0,0,4.235456560842067
7,22,female,38,15,45,right,change,catch,anti,1,0.3055225554162462,0,f,1,change,1.0323651178132423,0,0,0,0,0.3874900892660662,0,0,5.846378188432936
7,22,female,39,75,25,left,change,valid,anti,2,0.32018627045908943,1,f,1,change,1.3727307949884562,0.1758543175672082,0,0,0,0.3875330678492901,0,0,5.139085428592807
7,22,female,40,75,25,right,change,valid,anti,2,0.34486303303128807,1,f,1,change,5.46648344105779,0.17558814172823478,0,0,0,0.3875025979596103,0,0,8.597776275310025
7,22,female,41,135,185,right,change,valid,clock,2,0.2814693030286435,1,f,1,change,0.7669614655314945,0.17532518197622798,0,0,0,0.387421451829141,0,0,3.912836868696104
7,22,female,42,135,135,left,same,valid,anti,2,0.25742503123910865,1,j,1,same,1.1796042891346588,0.17506476458402204,0,0,0,0.387474693954573,0,0,4.65208677055125
7,22,female,43,15,325,left,change,valid,anti,2,0.24142352763010422,1,f,1,change,1.3004950234644639,0.17480623368266862,0,0,0,0.3874272250723152,0,0,4.665847935359125
7,22,female,44,75,75,left,same,valid,clock,2,0.2574818014563789,1,j,1,same,0.8667083409236511,0.17453111751278155,0,0,0,0.387474693954573,0,0,4.19248407226587
7,22,female,45,105,105,right,same,valid,clock,2,0.201464992340334,1,j,1,same,0.8995908054057509,0.1742565348709842,0,0,0,0.38741632005985593,0,0,4.314430347754751
7,22,female,46,105,55,right,change,catch,clock,1,0.5533938326370844,0,f,1,change,2.0177549656291376,0,0,0,0,0.38746090231870767,0,0,7.328349635259656
7,22,female,47,75,185,left,same,catch,clock,2,0.48038508809986524,1,f,0,change,0.9097382411873696,0,0,0,0,0.3874977869236318,0,0,6.376874058640169
7,22,female,48,45,45,left,same,valid,anti,1,0.8483292236396665,0,f,0,change,2.292789989967787,0.17398172899366005,0,0,0,0.3874766183689644,0,0,6.236033564347963
7,22,female,49,15,65,right,change,valid,clock,1,0.5294534792119521,0,f,1,change,0.6037778815534693,0.17469894563903082,0,0,0,0.38753723741319845,0,0,4.018223560475235
7,22,female,50,75,125,right,change,catch,clock,2,0.3134707065673865,1,j,0,same,0.9627087027147354,0,0,0,0,0.3874615437907778,0,0,5.674698316008289
7,22,female,51,15,15,left,same,valid,anti,2,0.2162034388002212,1,j,1,same,0.7123186881144647,0.17540452627094327,0,0,0,0.3874336397857405,0,0,3.728276571668175
7,22,female,52,135,85,right,change,valid,anti,2,0.30532658590891515,1,f,1,change,0.8034047376513627,0.17515008905967394,0,0,0,0.3874779013094667,0,0,4.286365654081237
7,22,female,53,165,115,left,change,valid,anti,2,0.27347047563853266,1,f,1,change,2.114354140954674,0.1748976714017923,0,0,0,0.3875349922636815,0,0,5.514621057196564
7,22,female,54,105,15,right,same,catch,clock,1,0.6414601556462003,0,f,0,change,0.4243400542436575,0,0,0,0,0.38746475114930945,0,0,5.596721696359964
7,22,female,55,165,215,right,change,valid,clock,1,0.43241200937154645,0,f,1,change,0.9140986429028999,0.17462928735832078,0,0,0,0.38746507188261603,0,0,4.428756263967443
7,22,female,56,135,85,left,change,valid,anti,2,0.9374571817843389,1,f,1,change,1.9094816526358045,0.1753253254171413,0,0,0,0.3874188859426795,0,0,5.853183558318051
7,22,female,57,165,165,left,same,valid,anti,1,0.3375117710002087,0,f,0,change,0.11030004182248376,0.17507483542195784,0,0,0,0.38747822204641125,0,0,3.2419424779782275
7,22,female,58,135,135,right,same,valid,anti,3,0.8730457574365573,1,j,1,same,2.471838444151217,0.1758213285439033,0,0,0,0.38749137221020646,0,0,6.3637267819431145
7,22,female,1,165,165,right,same,valid,anti,2,2.4078449384069245,1,j,1,same,1.291540724450897,0.17556903903528126,0,0,0,0.3874804671959282,0,0,6.80910260719611
7,22,female,2,75,125,right,change,catch,clock,2,0.36150119698686467,1,f,1,change,1.3740624895763176,0,0,0,0,0.38751350297206955,0,0,6.314332523368648
7,22,female,3,165,85,right,change,catch,clock,2,0.244521834403713,1,j,0,same,1.9876664297498792,0,0,0,0,0.38751254076487385,0,0,7.203433026537823
7,22,female,4,45,95,left,change,valid,clock,2,0.2643404134669254,1,f,1,change,0.7547128902388067,0.1753197143261832,0,0,0,0.38744486553514434,0,0,4.50371283635468
7,22,female,5,75,75,right,same,valid,clock,1,0.3695638507779222,0,f,0,change,0.09523508643178502,0.17507274097815295,0,0,0,0.3874910514732619,0,0,3.5939017881664768
7,22,female,6,15,325,right,change,valid,anti,2,0.3294231376166863,1,f,1,change,0.9410051599952567,0.17580881081901234,0,0,0,0.38741439564546454,0,0,4.220390643240535
7,22,female,7,105,55,right,change,valid,anti,2,0.24946982390429184,1,f,1,change,0.9532357740899897,0.17556008276687823,0,0,0,0.3874413374433061,0,0,4.471464787069635
7,22,female,8,15,45,right,change,catch,anti,2,0.24930689017310215,1,f,1,change,0.8582842180076113,0,0,0,0,0.3874227347714623,0,0,5.908683341502183
7,22,female,9,75,45,left,same,catch,anti,1,0.3364408345278207,0,f,0,change,0.4482236374497006,0,0,0,0,0.3874580156971206,0,0,5.113733517391665
7,22,female,10,135,135,left,same,valid,anti,1,0.4561980889284314,0,f,0,change,1.9344490017429052,0.17531424748863644,0,0,0,0.3874855989670323,0,0,5.616353927985983
7,22,female,11,165,215,left,change,valid,clock,2,0.32134733366001456,1,f,1,change,0.7737171213848342,0.17604527791887548,0,0,0,0.38751638959365664,0,0,3.9430556232673553
7,22,female,12,15,15,left,same,valid,clock,2,0.20943014248223335,1,f,0,change,0.5605013355434494,0.17579660102558764,0,0,0,0.3874490350972337,0,0,3.9784500896785175
7,22,female,13,75,25,left,change,valid,anti,2,0.3691943632620678,1,f,1,change,2.6032938913958787,0.17555134856000132,0,0,0,0.3875122200297483,0,0,6.047219991327438
7,22,female,14,75,125,right,change,valid,clock,2,0.20946189531605341,1,f,1,change,0.6397477477948996,0.1753089194736796,0,0,0,0.3874435825928231,0,0,4.089015700652453
7,22,female,15,105,105,right,same,valid,clock,2,0.2574760282132047,1,j,1,same,0.6919818001733802,0.17506872983902738,0,0,0,0.3874615437907778,0,0,4.152515273433892
7,22,female,16,45,45,left,same,valid,clock,2,0.16139387882321898,1,j,1,same,0.9762126374989748,0.17483021025976075,0,0,0,0.3875102956153569,0,0,4.241598970053019
7,22,female,17,165,215,right,change,valid,clock,2,0.19340907399782736,1,f,1,change,0.8225337349795154,0.1745763545858089,0,0,0,0.3874968247164361,0,0,4.285083032054899
7,22,female,18,15,65,left,change,valid,clock,2,0.26544983822168433,1,f,1,change,1.4801365179391723,0.17432299609484225,0,0,0,0.3874499973044294,0,0,4.865728493388815
7,22,female,19,135,135,right,same,valid,anti,1,0.6014878287223837,0,f,0,change,0.35599769326836395,0.17406947561259767,0,0,0,0.38749073073813634,0,0,3.86138124183708
7,22,female,20,45,45,left,same,valid,anti,2,0.22539764810790075,1,j,1,same,1.4550444026499463,0.17473092531969792,0,0,0,0.3873986795952078,0,0,4.54278774481827
7,22,female,21,75,75,left,same,valid,clock,1,0.2734922856652702,0,f,0,change,1.037232602655422,0.17448040341381127,0,0,0,0.3874329983136704,0,0,4.09812074544061
7,22,female,22,75,75,right,same,valid,anti,2,0.24946244698367082,1,j,1,same,1.1136536542053364,0.17513134291688925,0,0,0,0.387448072891857,0,0,4.465750880739506
7,22,female,23,135,45,left,same,catch,clock,2,0.23339358887824346,1,f,0,change,2.727778789876538,0,0,0,0,0.38749714545338065,0,0,7.624972416730088
7,22,female,24,135,185,right,change,valid,clock,2,0.27979377978044795,1,f,1,change,0.7696938128810871,0.17489819716011623,0,0,0,0.3874692414483434,0,0,3.9890462346920685
7,22,female,25,105,155,right,change,valid,clock,2,0.2414523938423372,1,f,1,change,1.0553102283902263,0.17465021693602173,0,0,0,0.38748175014006847,0,0,4.529754970761132
7,22,female,26,105,105,left,same,valid,anti,2,0.26544759307216736,1,f,0,change,1.380103867046273,0.17440288068736975,0,0,0,0.38746667556188186,0,0,4.7246323727504205
7,22,female,27,105,15,right,same,catch,clock,1,0.4093616974878387,0,f,0,change,2.2039401096644724,0,0,0,0,0.38753146417184325,0,0,6.969584955186292
7,22,female,28,15,65,right,change,valid,clock,2,0.3199091548231081,1,f,1,change,0.9096833953863097,0.17415555417202194,0,0,0,0.3874779013112857,0,0,4.733732606504418
7,22,female,29,105,55,right,change,catch,clock,1,0.7774126380118105,0,f,1,change,1.0081126885597769,0,0,0,0,0.3874669962970074,0,0,6.345614516752903
7,22,female,30,45,355,right,change,valid,anti,1,1.4962679195032251,0,f,1,change,3.353229423522862,0.17390760910662711,0,0,0,0.38752793607818603,0,0,8.390129102530409
7,22,female,31,135,135,left,same,valid,clock,2,0.2412894601111475,1,j,1,same,1.499995509699147,0.17455567209103862,0,0,0,0.38749041000301077,0,0,4.972855176289158
7,22,female,32,45,45,right,same,valid,anti,2,0.24147195871955773,1,j,1,same,0.6723838872658234,0.17431134222556804,0,0,0,0.387474693954573,0,0,3.8827425595718523
7,22,female,33,135,185,left,change,valid,clock,1,0.5694889910664642,0,f,1,change,1.0147108631899755,0.17406677432600248,0,0,0,0.38743331905061495,0,0,4.685227747999306
7,22,female,34,165,165,left,same,valid,clock,2,0.20939678597278544,1,j,1,same,4.6252540226669225,0.1747050363491896,0,0,0,0.3874397337622213,0,0,8.195902473256865
7,22,female,35,75,185,left,same,catch,clock,1,0.35346259837024263,0,f,0,change,0.6302366516229085,0,0,0,0,0.38754397286356834,0,0,5.7525697343535285
7,22,female,36,15,15,left,same,valid,anti,2,0.24017009255294397,1,j,1,same,0.7265141290481552,0.17446342463595038,0,0,0,0.3874788635166624,0,0,4.255018551351895
7,22,female,37,135,85,right,change,valid,anti,2,0.233422775825602,1,f,1,change,0.8468301050215814,0.17422194213018338,0,0,0,0.38753435079161136,0,0,4.154226398342871
7,22,female,38,45,25,left,change,catch,anti,1,0.681507855457312,0,f,1,change,0.40601321687790914,0,0,0,0,0.3875385203573387,0,0,5.815017294069548
7,22,female,39,45,355,left,change,valid,anti,2,0.26440744722640375,1,f,1,change,0.9988722933121608,0.17397998434680628,0,0,0,0.38748303308238974,0,0,4.535512817881681
7,22,female,40,165,165,left,same,valid,anti,2,4.7375352488525095,1,f,0,change,0.07750834554281028,0.17373695030892633,0,0,0,0.38742690433537064,0,0,7.72189040333069
7,22,female,41,15,325,left,change,valid,anti,2,0.7214644663345098,1,f,1,change,1.0529678956409043,0.17349223998221797,0,0,0,0.3875090126730356,0,0,4.4867757467382035
7,22,female,42,105,105,left,same,valid,clock,2,0.23345196277477953,1,j,1,same,0.7017109966145654,0.1732452517499895,0,0,0,0.3875054845811974,0,0,4.288524526016772
7,22,female,43,15,15,right,same,valid,clock,3,0.37753284975042334,1,j,1,same,1.1123646174655732,0.17299537991203295,0,0,0,0.38748399528958544,0,0,4.548957737300952
7,22,female,44,165,165,right,same,valid,clock,3,0.29750288020659355,1,j,1,same,0.6921918820498831,0.17274201219085206,0,0,0,0.38750388090193155,0,0,4.168227473450315
7,22,female,45,45,85,left,change,catch,clock,1,0.4413877976749063,0,f,1,change,0.7508682315146871,0,0,0,0,0.3875160688567121,0,0,5.737233436568204
7,22,female,46,105,155,left,change,valid,clock,2,0.36878189716480847,1,f,1,change,0.9913176848531293,0.1724845272292143,0,0,0,0.38744197891355725,0,0,4.435858955839649
7,22,female,47,135,135,right,same,valid,clock,1,0.37758224304525356,0,f,0,change,0.05116407811510726,0.17222229206318174,0,0,0,0.3875118992946227,0,0,3.4360218895690195
7,22,female,48,75,125,left,change,valid,clock,2,0.4094646536432265,1,f,1,change,0.7751867323204351,0.17291832165701404,0,0,0,0.3874384508199,0,0,3.834733558445805
7,22,female,49,45,95,right,change,valid,clock,2,0.273474645202441,1,f,1,change,0.8699006232545798,0.1726664526618636,0,0,0,0.3875042016370571,0,0,4.2599915582359245
7,22,female,50,135,85,left,change,valid,anti,2,0.2654254623084853,1,f,1,change,1.114769172936576,0.172410299775079,0,0,0,0.3875510290472448,0,0,4.431424784916089
7,22,female,51,165,115,right,change,valid,anti,2,0.20147461441047199,1,f,1,change,0.6572442004580807,0.17214923750408462,0,0,0,0.38742754580744077,0,0,3.7681796196848154
7,22,female,52,45,45,right,same,valid,clock,2,0.24940118646554765,1,j,1,same,0.6084888473797037,0.171882625593751,0,0,0,0.38749233441740216,0,0,3.9755686002336006
7,22,female,53,75,25,right,change,valid,anti,2,0.3134145778221864,1,f,1,change,0.9266506341573404,0.17160980645615703,0,0,0,0.3874512802485697,0,0,4.316339366585453
7,22,female,54,15,15,right,same,valid,anti,2,0.22549130293009512,1,j,1,same,1.2962395023205318,0.17133010252475533,0,0,0,0.38742979095695773,0,0,4.889392693383343
7,22,female,55,75,75,left,same,valid,anti,2,0.24147292092675343,1,j,1,same,1.2558537470922602,0.17104281351706696,0,0,0,0.387411829759003,0,0,4.333419504322592
7,22,female,56,105,105,right,same,valid,anti,2,0.18549812818491773,1,j,1,same,0.7901240349074214,0.17074721358954925,0,0,0,0.38750099428216345,0,0,3.787266600638759
7,22,female,57,105,55,left,change,valid,anti,2,0.18542532118408417,1,f,1,change,0.6950108280379936,0.17044254836766898,0,0,0,0.38749169294533203,0,0,4.1467606336718745
7,22,female,58,165,115,left,change,valid,anti,1,0.3774549109766667,0,f,1,change,0.3059683780265914,0.17012803183347086,0,0,0,0.38751446517926524,0,0,4.011828732272988
7,22,female,1,135,185,right,change,valid,clock,2,0.5043087632675451,1,f,1,change,1.3839071508664347,0.17097374753839373,0,0,0,0.3875128615018184,0,0,4.88100385139478
7,22,female,2,165,165,right,same,valid,anti,2,0.24947142758173868,1,j,1,same,0.8129055702811456,0.17067854876977673,0,0,0,0.3873929063538526,0,0,4.020730109896249
7,22,female,3,45,355,right,change,valid,anti,1,0.6890303903473978,0,j,0,same,1.6172994568023569,0.1703741625367876,0,0,0,0.387448072891857,0,0,5.402350094551366
7,22,female,4,105,15,right,same,catch,clock,2,0.2893318177502806,1,j,1,same,0.9309581144843833,0,0,0,0,0.38744197891355725,0,0,5.7370175814467075
7,22,female,5,45,45,left,same,valid,anti,2,0.2243129200032854,1,j,1,same,1.2805529611596285,0.1711917045894501,0,0,0,0.38745160098551423,0,0,4.301565639199907
7,22,female,6,45,95,right,change,valid,clock,1,0.47346553630814014,0,f,1,change,1.3399509659284377,0.17090540138216204,0,0,0,0.3874567327547993,0,0,4.698075136826446
7,22,female,7,15,15,right,same,valid,clock,2,0.3054510313577339,1,j,1,same,0.7140413595079735,0.17167225244820283,0,0,0,0.38750099428216345,0,0,4.089304042039657
7,22,female,8,45,95,left,change,valid,clock,1,0.34545190376047685,0,f,1,change,0.40629418134085427,0.17140159283604411,0,0,0,0.38749810765875736,0,0,4.049105275717011
7,22,female,9,135,135,left,same,valid,clock,1,0.3374572459324554,0,f,0,change,1.0826449276282801,0.17212443659438487,0,0,0,0.3874336397857405,0,0,4.2713375832936435
7,22,female,10,45,85,left,change,catch,clock,2,0.24952980147645576,1,j,0,same,1.0143080191610352,0,0,0,0,0.3874320361064747,0,0,5.89310424679752
7,22,female,11,135,135,right,same,valid,clock,1,0.3045170490258897,0,f,0,change,0.028567927969561424,0.17279337901847192,0,0,0,0.38753916182758985,0,0,3.761573105928619
7,22,female,12,135,185,left,change,valid,clock,1,0.3214717791088333,0,f,1,change,1.365685514805591,0.17342095573000993,0,0,0,0.38749265515252773,0,0,4.576267098420431
7,22,female,13,135,85,right,change,valid,anti,2,0.3934150396817131,1,f,1,change,0.8122570427149185,0.17401835391072185,0,0,0,0.38750131501547,0,0,4.284588457621794
7,22,female,14,75,25,left,change,valid,anti,2,0.2734861916869704,1,f,1,change,0.7925866435398348,0.17379632995513716,0,0,0,0.38740124547985033,0,0,4.321038785925339
7,22,female,15,45,355,left,change,valid,anti,1,0.5135122739138751,0,f,1,change,0.2962837638460769,0.1735727579264792,0,0,0,0.3874968247164361,0,0,4.142331273784293
7,22,female,16,75,45,left,same,catch,anti,2,0.27349164419320005,1,f,0,change,0.777569798501645,0,0,0,0,0.387440695971236,0,0,5.409653887702007
7,22,female,17,165,215,right,change,valid,clock,1,0.6883485062699037,0,f,1,change,1.5248897310702887,0.17415957105605218,0,0,0,0.38746571335468616,0,0,5.232587259351931
7,22,female,18,15,15,right,same,valid,anti,2,0.3774799283601169,1,f,0,change,0.6789820618960221,0.17472889225225813,0,0,0,0.3875138237071951,0,0,4.101086909109654
7,22,female,19,45,25,left,change,catch,anti,2,0.3934910540392593,1,f,1,change,1.1653774161022739,0,0,0,0,0.387484316024711,0,0,6.127098252887663
7,22,female,20,165,165,right,same,valid,clock,3,0.1999661944591935,1,j,1,same,1.1452445160612115,0.17451314579763527,0,0,0,0.38743620567038306,0,0,4.784962435434863
7,22,female,21,45,45,right,same,valid,clock,3,0.2654491967496142,1,j,1,same,0.9292902888937533,0.17429750023407503,0,0,0,0.38748752338142367,0,0,4.097810273291543
7,22,female,22,75,25,right,change,valid,anti,1,0.7534575307454361,0,f,1,change,0.6403039034812537,0.17408145499521366,0,0,0,0.38742369697865797,0,0,4.625601379419095
7,22,female,23,15,65,left,change,valid,clock,2,0.29744739293346356,1,j,0,same,1.7210552075921441,0.17464565644639762,0,0,0,0.38752280430890096,0,0,4.854905267506183
7,22,female,24,15,45,right,change,catch,anti,2,0.28945626319909934,1,f,1,change,0.7657968742387311,0,0,0,0,0.3874881648534938,0,0,5.253263164917371
7,22,female,25,135,85,left,change,valid,anti,2,1.7283711886975652,1,f,1,change,1.051312899477125,0.17443234118540507,0,0,0,0.3874176030003582,0,0,5.911700502143503
7,22,female,26,75,75,right,same,valid,clock,2,0.1854496970972832,1,j,1,same,0.8411925337859429,0.17421892731225896,0,0,0,0.387448072891857,0,0,4.293774007066531
7,22,female,27,105,105,left,same,valid,clock,2,0.20946927223667444,1,j,1,same,0.46418986013304675,0.17400492435541837,0,0,0,0.38745256319270993,0,0,3.8504172129851213
7,22,female,28,165,165,left,same,valid,clock,1,0.39357187943460303,0,f,0,change,0.09483384608211054,0.17378984364398326,0,0,0,0.387438450821719,0,0,3.523952541381732
7,22,female,29,105,55,right,change,valid,anti,2,0.5534435466688592,1,f,1,change,0.9047293119074311,0.17435327615066254,0,0,0,0.38747725983921555,0,0,4.28519176145528
7,22,female,30,165,115,right,change,valid,anti,2,0.2813987411773269,1,j,0,same,4.411529870756567,0.174141978801025,0,0,0,0.38749233441740216,0,0,7.800724349483062
7,22,female,31,105,105,right,same,valid,anti,2,0.369415350152849,1,j,1,same,0.8900518052287225,0.17392990990959323,0,0,0,0.3875061260514485,0,0,4.2481188851743354
7,22,female,32,105,55,left,change,valid,anti,2,0.26544695160009724,1,f,1,change,0.7895056564939296,0.1737165895254758,0,0,0,0.38751350297206955,0,0,4.188098973902015
7,22,female,33,15,15,left,same,valid,clock,1,0.35346452278281504,0,f,0,change,0.11606622807084932,0.17350153693242165,0,0,0,0.3874702036537201,0,0,3.7580129397611017
7,22,female,34,45,45,left,same,valid,clock,2,0.17732257542957086,1,j,1,same,1.3040769996587187,0.17406658413068182,0,0,0,0.38743171537134913,0,0,4.293265320260616
7,22,female,35,15,65,right,change,valid,clock,2,0.24939862057908613,1,f,1,change,0.7304235763822362,0.17385634582675552,0,0,0,0.3875244079863478,0,0,3.85788810943086
7,22,female,36,165,85,right,change,catch,clock,2,0.42535710711672436,1,f,1,change,1.1137040097091813,0,0,0,0,0.38744582774052105,0,0,6.267596842933926
7,22,female,37,75,185,left,same,catch,clock,1,0.4481687916468218,0,f,0,change,0.7235296834460314,0,0,0,0,0.38752023842243943,0,0,6.174299962282021
7,22,female,38,135,45,left,same,catch,clock,2,0.6642525960360217,1,f,0,change,4.7139858722348436,0,0,0,0,0.3875032394298614,0,0,9.932778289530688
7,22,female,39,75,75,left,same,valid,clock,2,0.21631537555731484,1,j,1,same,0.7553511542628257,0.17364468831831492,0,0,0,0.38741824447242834,0,0,4.076879062116859
7,22,female,40,165,215,left,change,valid,clock,2,0.33745788740452554,1,f,1,change,0.8342078726509499,0.1734311384179586,0,0,0,0.38747693910409,0,0,4.515970071512129
7,22,female,41,165,165,left,same,valid,anti,2,0.20142425890844606,1,j,1,same,0.6424300603757729,0.17321521977608778,0,0,0,0.3874557705494226,0,0,3.9663214695337956
7,22,female,42,165,115,left,change,valid,anti,1,0.39341920924562146,0,f,1,change,0.9820949300665234,0.17299645115908735,0,0,0,0.38752504945659894,0,0,4.530923731619623
7,22,female,43,105,155,left,change,valid,clock,2,0.2334866022283677,1,j,0,same,0.679001306036298,0.17357408149010511,0,0,0,0.38747693910409,0,0,4.0614590523146035
7,22,female,44,105,105,right,same,valid,clock,1,0.2974987106426852,0,f,0,change,0.4041580816410715,0.17336194617404166,0,0,0,0.387448072891857,0,0,4.01244646921441
7,22,female,45,75,125,right,change,catch,clock,1,0.28155076989423833,0,f,1,change,0.056139330148653244,0,0,0,0,0.38748880632556393,0,0,4.723257699581154
7,22,female,46,75,125,right,change,valid,clock,2,0.3194488991084654,1,f,1,change,0.8974027465228573,0.1739201911523547,0,0,0,0.38750676752351865,0,0,4.417369826212962
7,22,female,47,45,45,right,same,valid,anti,1,0.40151329513719247,0,f,0,change,0.40502727536295424,0.1737133211632355,0,0,0,0.38752665313586476,0,0,4.009588714208803
7,22,female,48,15,15,left,same,valid,anti,2,0.2814070803051436,1,j,1,same,0.6214808880013152,0.17425584596269011,0,0,0,0.38743235684341926,0,0,3.8230841174245143
7,22,female,49,135,135,right,same,valid,anti,2,0.2094676685592276,1,j,1,same,0.40745203718506673,0.17405295272114707,0,0,0,0.38746026084845653,0,0,3.7920433172785124
7,22,female,50,135,135,left,same,valid,anti,3,0.26542866966519796,1,j,1,same,0.4580798452243471,0.17384906819698143,0,0,0,0.38747437321944744,0,0,3.8398075970726495
7,22,female,51,105,105,left,same,valid,anti,1,0.4335740347778483,0,f,0,change,1.0095774884593993,0.1736437440874824,0,0,0,0.3874586571691907,0,0,4.457139768916022
7,22,female,52,75,75,right,same,valid,anti,1,0.3695734728480602,0,f,0,change,0.013862196550689987,0.17418264285510915,0,0,0,0.38749041000301077,0,0,3.538020329509891
7,22,female,53,15,325,right,change,valid,anti,2,1.6653969809794944,1,f,1,change,0.9915293704088981,0.17470569638818562,0,0,0,0.38747822204641125,0,0,5.5632894909012975
7,22,female,54,105,155,right,change,valid,clock,1,0.5935329421226925,0,f,1,change,0.12417250191720086,0.17450757030223663,0,0,0,0.3875465387482109,0,0,3.4881526650569867
7,22,female,55,75,75,left,same,valid,anti,2,0.2734444960478868,1,j,1,same,1.2429034021079133,0.17502284521329314,0,0,0,0.3874759768968943,0,0,4.176451457295116
7,22,female,56,75,125,left,change,valid,clock,2,0.8174510364897287,1,f,1,change,0.7843831867776316,0.17483858304277883,0,0,0,0.3874872026462981,0,0,4.545765775705149
7,22,female,57,15,325,left,change,valid,anti,2,0.641436741940197,1,f,1,change,0.867096751844656,0.17464228554393946,0,0,0,0.38741792373730277,0,0,4.581359418982174
7,22,female,58,105,55,right,change,catch,clock,3,0.7052352403843543,1,f,1,change,2.775015138724484,0,0,0,0,0.38745994011151197,0,0,8.216901038927972
