subject,age,gender,ntrial,memory_ori,test_ori,cue,type,trial_type,which_change,pas,pas_rt,vis,test_key,test_acc,test,test_rt,contrast,fix_dur,cue_dur,jitter_dur,target_dur,mask_dur,retention_dur,trial_dur
8,23,female,1,75,75,left,same,valid,clock,3,5.615978667227864,1,f,1,same,0.7451270626515907,0.5,0,0,0,0.3874682792402382,0,0,9.385165396981392
8,23,female,2,135,45,left,change,catch,clock,2,1.2334096256636258,1,f,0,same,1.6720038154717258,0,0,0,0,0.3874127919661987,0,0,7.515623997700459
8,23,female,3,135,85,right,change,valid,anti,1,1.1042894549800621,0,j,1,change,2.4595648514741697,0.4069419370673367,0,0,0,0.38738745384671347,0,0,6.475276089282488
8,23,female,4,45,355,left,change,valid,anti,1,1.6893565785449027,0,f,0,same,2.8087799470913524,0.5274438292530478,0,0,0,0.3874435825919136,0,0,7.665037115533778
8,23,female,5,15,65,left,change,valid,clock,2,3.4650285839652497,1,f,0,same,3.337341460348398,0.6141825392808453,0,0,0,0.38748207087519404,0,0,9.771282416756549
8,23,female,6,15,15,left,same,valid,anti,2,1.4174830459114673,1,f,1,same,0.9119388087619882,0.5833632422318545,0,0,0,0.38745897790522577,0,0,5.72522797892907
8,23,female,7,75,25,right,change,valid,anti,2,1.3214089149132633,1,j,1,change,0.8842019069661546,0.5602780180023089,0,0,0,0.38746956218255946,0,0,5.038876052333762
8,23,female,8,45,185,right,change,catch,anti,1,0.7295056308357744,0,j,1,change,2.0977021853650513,0,0,0,0,0.3874862404391024,0,0,7.249663868996322
8,23,female,9,165,115,left,change,valid,anti,2,1.8235725978820483,1,f,0,same,3.388553328081798,0.5419561274634549,0,0,0,0.38735698395612417,0,0,8.51157374739887
8,23,female,10,165,45,right,change,catch,clock,1,1.6013188010128943,0,j,1,change,2.750638264024019,0,0,0,0,0.387416640794072,0,0,9.262071529190507
8,23,female,11,165,165,right,same,valid,anti,3,1.8404368804986007,1,f,1,same,0.8769648268416859,0.5262445249515796,0,0,0,0.3874025284239906,0,0,6.076384166946809
8,23,female,12,105,105,right,same,valid,anti,2,1.377190624767536,1,f,1,same,0.7656259221148503,0.5129724195211673,0,0,0,0.38737911471798725,0,0,4.966597622963491
8,23,female,13,105,155,left,change,valid,clock,2,1.8573730079106099,1,j,1,change,0.7554576385127802,0.5005201688702173,0,0,0,0.3874445447981998,0,0,5.684456057927491
8,23,female,14,15,325,right,change,valid,anti,3,1.0734587367123822,1,j,1,change,0.6589604571381642,0.4892829332162408,0,0,0,0.3874750146896986,0,0,4.6527654472720315
8,23,female,15,165,215,left,change,valid,clock,3,1.4414368702355205,1,j,1,change,0.5838961175586519,0.4789064130853318,0,0,0,0.38733806054915476,0,0,5.306814158042471
8,23,female,16,165,115,right,change,valid,anti,2,1.1293652127505993,1,j,1,change,1.6976851222261757,0.46913441078161977,0,0,0,0.38738488796025194,0,0,5.832957965662899
8,23,female,17,165,165,right,same,valid,clock,3,1.5775131565778793,1,f,1,same,0.5743526270816801,0.45977452162725513,0,0,0,0.38742658360024507,0,0,5.550153119218521
8,23,female,18,45,105,left,same,catch,anti,1,0.6653844722877693,0,j,0,change,1.6320629206447848,0,0,0,0,0.38742369697956747,0,0,6.766776721773567
8,23,female,19,45,45,left,same,valid,anti,2,0.9122034157071539,1,f,1,same,0.8979569777975485,0.4506555062040996,0,0,0,0.3874374886136138,0,0,5.303121528036172
8,23,female,20,45,45,right,same,valid,clock,3,1.273447382667655,1,f,1,same,0.9643640196136403,0.4416327683411624,0,0,0,0.3873938685592293,0,0,5.165711301955525
8,23,female,21,105,105,left,same,valid,clock,2,4.27342268602024,1,j,0,change,1.3850239525409052,0.4325787922184049,0,0,0,0.38741150902296795,0,0,8.360860367075475
8,23,female,22,75,75,right,same,valid,clock,2,1.3853944022639553,1,f,1,same,2.676319955661711,0.42336225129687893,0,0,0,0.3874397337640403,0,0,6.87014406164235
8,23,female,23,105,105,left,same,valid,anti,2,5.721304419224907,1,f,1,same,1.396821252717018,0.41384240498684494,0,0,0,0.38735987057680177,0,0,10.156806716975552
8,23,female,24,105,55,right,change,valid,anti,3,1.177444134257712,1,j,1,change,0.5830599596129105,0.4038638314397088,0,0,0,0.38741439564455504,0,0,4.991952741520436
8,23,female,25,165,215,right,change,valid,clock,2,0.8013841027996023,1,f,0,same,2.003429626740399,0.3932605418562495,0,0,0,0.3873688511757791,0,0,5.782859050777006
8,23,female,26,135,135,right,same,valid,anti,3,1.6654495816319468,1,f,1,same,0.654409859158477,0.38187660502184595,0,0,0,0.3874185652075539,0,0,5.2656926351382936
8,23,female,27,15,155,left,same,catch,anti,1,0.9214415658061625,0,j,0,change,0.5335499154534773,0,0,0,0,0.3873483240913629,0,0,5.940027557610847
8,23,female,28,135,85,left,change,valid,anti,2,2.6002892394462833,1,f,0,same,1.973058201981985,0.3695820826498333,0,0,0,0.38743075316415343,0,0,7.8543856756878085
8,23,female,29,105,155,right,change,valid,clock,2,1.1454565223530153,1,j,1,change,0.7291794426382694,0.35627909914627803,0,0,0,0.38737719030359585,0,0,4.685768508374167
8,23,female,30,135,185,left,change,valid,clock,2,1.3748098037358432,1,j,1,change,0.9979479330513641,0.3422861737829884,0,0,0,0.3874750146896986,0,0,5.404864020896639
8,23,female,31,135,135,right,same,valid,clock,3,1.4493240816045727,1,f,1,same,0.6028297868515438,0.32652110945948404,0,0,0,0.3874111882878424,0,0,5.5417969922691555
8,23,female,32,75,75,left,same,valid,anti,1,2.5294733648252077,0,j,0,change,0.653370354785693,0.3102800381393529,0,0,0,0.3873406264347068,0,0,6.234782695155445
8,23,female,33,75,125,right,change,valid,clock,2,5.609480562134195,1,f,0,same,1.096356378406199,0.3500891305646151,0,0,0,0.38742979095695773,0,0,9.60929357322675
8,23,female,34,45,45,right,same,valid,anti,2,2.265391785060274,1,f,1,same,1.2837506959967868,0.34074720049063745,0,0,0,0.3874464692135007,0,0,6.870422139487346
8,23,female,35,45,95,left,change,valid,clock,2,1.361432880283246,1,f,0,same,1.2615567484072017,0.33147669080637815,0,0,0,0.38738585016744764,0,0,5.605977166184857
8,23,female,36,15,325,left,change,valid,anti,1,0.961487982674953,0,j,1,change,0.7424877286521223,0.3223176140733234,0,0,0,0.38742113109401544,0,0,4.971696678973785
8,23,female,37,15,15,left,same,valid,clock,1,2.64935153658098,0,j,0,change,2.8262606837060957,0.34477296284549735,0,0,0,0.38736275719747937,0,0,8.35374195915665
8,23,female,38,105,55,left,change,valid,anti,2,0.9854815782246078,1,j,1,change,0.5202958337722521,0.3624520196425619,0,0,0,0.38743331904970546,0,0,4.398441930162335
8,23,female,39,15,15,right,same,valid,clock,3,1.5613775854508276,1,f,1,same,2.2482654613850173,0.3564124742545833,0,0,0,0.3873794354540223,0,0,6.685966723031015
8,23,female,40,75,25,left,change,valid,anti,1,1.0254401135152875,0,j,1,change,1.1389744540438187,0.35077491368103597,0,0,0,0.38742209330030164,0,0,5.295197111326161
8,23,female,41,165,165,left,same,valid,clock,2,2.5454318898518977,1,f,1,same,1.1684827790586496,0.3655711174096312,0,0,0,0.38748399528958544,0,0,7.358298971849763
8,23,female,42,15,15,right,same,valid,anti,4,1.0414528428727863,1,f,1,same,0.6778960508454475,0.36078202248086333,0,0,0,0.3874807879319633,0,0,4.609588329326471
8,23,female,43,45,355,right,change,valid,anti,2,0.8653808159006076,1,j,1,change,0.9746112041957531,0.35588477480262404,0,0,0,0.3873977173880121,0,0,4.926482889392901
8,23,female,44,75,125,left,change,valid,clock,3,1.1934732211357186,1,j,1,change,0.5418640260277243,0.3513020637892298,0,0,0,0.38742209330121113,0,0,4.875099107328424
8,23,female,45,105,125,left,change,catch,clock,2,3.1374519217197303,1,f,0,same,0.8699124904733253,0,0,0,0,0.3874836745535504,0,0,8.60706478091106
8,23,female,46,135,135,left,same,valid,clock,2,1.7841759915218063,1,f,1,same,1.2825732752762633,0.3466362996094758,0,0,0,0.38742786654256633,0,0,6.1782347477346775
8,23,female,47,15,65,right,change,valid,clock,3,1.633427330273662,1,j,1,change,0.7164420661538315,0.34228798758760137,0,0,0,0.3873727000045619,0,0,5.7587904030751815
8,23,female,48,135,15,right,change,catch,clock,2,2.2493485858121858,1,f,0,same,2.6686226198207805,0,0,0,0,0.3874605815835821,0,0,9.246206658986011
8,23,female,49,135,185,right,change,valid,clock,3,1.0484317307664242,1,j,1,change,0.7422561574840074,0.3378624981284793,0,0,0,0.3874471106846613,0,0,4.748693643531624
8,23,female,50,105,15,right,change,catch,anti,1,3.2734137054212624,0,f,0,same,0.7737488742177447,0,0,0,0,0.3874243384507281,0,0,8.49761083984049
8,23,female,51,135,135,left,same,valid,anti,1,0.8643195014992671,0,j,0,change,1.6865729134860885,0.33374728981161017,0,0,0,0.38749041000301077,0,0,5.57381924362835
8,23,female,52,75,85,left,change,catch,anti,1,1.1054187653471672,0,f,0,same,0.878179132166224,0,0,0,0,0.3874031698951512,0,0,6.408041549383597
8,23,female,53,75,75,right,same,valid,anti,3,1.504214146239974,1,f,1,same,0.5411683503152744,0.34443876228024395,0,0,0,0.3874089431374159,0,0,5.238418234209348
8,23,female,54,45,45,left,same,valid,clock,3,2.0734382096270565,1,f,1,same,0.896027752617556,0.34051133094258557,0,0,0,0.3874346019929362,0,0,5.754076229893144
8,23,female,55,45,355,right,same,catch,clock,1,0.7534350792475379,0,j,0,change,1.1382909662870588,0,0,0,0,0.3874083016662553,0,0,6.657465828820023
8,23,female,56,45,95,right,change,valid,clock,2,0.800393991722558,1,j,1,change,0.8559492621798199,0.33677628622480216,0,0,0,0.38741792373730277,0,0,5.294823774982433
8,23,female,57,165,165,left,same,valid,anti,1,0.7215674224917166,0,j,0,change,1.1043263395849863,0.33328654876624164,0,0,0,0.3874397337631308,0,0,4.789312894344221
8,23,female,58,105,105,right,same,valid,clock,3,1.0014134821885818,1,f,1,same,1.4217853944655872,0.34253927737937995,0,0,0,0.38742401771469304,0,0,5.813846288061541
8,23,female,1,135,185,right,change,valid,clock,4,1.248123696208495,1,j,1,change,0.6152695206146745,0.3391319840286665,0,0,0,0.3874548083413174,0,0,5.193315739910759
8,23,female,2,105,55,left,change,valid,anti,2,0.7454375347988389,1,j,1,change,1.2620291920793534,0.33592863316548804,0,0,0,0.38746026084754703,0,0,5.132365374401161
8,23,female,3,45,95,left,change,valid,clock,3,1.1292917642767861,1,j,1,change,0.9376454536359233,0.33290224791877243,0,0,0,0.3874262628651195,0,0,5.230345958345424
8,23,female,4,45,355,left,change,valid,anti,2,0.7374691773002269,1,j,1,change,0.8747148659695085,0.3297697686025813,0,0,0,0.38746763776907756,0,0,4.419536075067299
8,23,female,5,135,185,left,change,valid,clock,2,0.7134649974723288,1,j,1,change,0.6377620731327625,0.3267993776338248,0,0,0,0.38749137221020646,0,0,4.307942826938415
8,23,female,6,105,105,right,same,valid,clock,3,0.9933886752078251,1,f,1,same,0.7421082983310043,0.32400247660395726,0,0,0,0.38739996253843856,0,0,4.633106273847261
8,23,female,7,45,45,left,same,valid,clock,3,0.7454429873068875,1,f,1,same,0.7031392326462083,0.3211227254036851,0,0,0,0.3874169615301071,0,0,4.302350158700392
8,23,female,8,165,165,right,same,valid,anti,2,1.0255148449305125,1,f,1,same,0.511889672054167,0.31832218099453063,0,0,0,0.3874349227289713,0,0,4.347037300277407
8,23,female,9,135,135,left,same,valid,clock,2,0.7854855553487141,1,f,1,same,0.9385887373027799,0.31569006285235895,0,0,0,0.3874634682042597,0,0,4.857942313761669
8,23,female,10,135,15,right,change,catch,clock,1,0.7694859761522821,0,j,1,change,0.5531135096425714,0,0,0,0,0.3873672474974228,0,0,6.03372888596914
8,23,female,11,45,355,right,same,catch,clock,1,0.6084657544088259,0,j,0,change,0.7795173056147178,0,0,0,0,0.3873502485057543,0,0,6.314401802278553
8,23,female,12,135,85,left,change,valid,anti,1,1.455572012859193,0,j,1,change,0.43768618706781126,0.31317926563160126,0,0,0,0.3873300421573731,0,0,5.118742767410367
8,23,female,13,15,155,left,same,catch,anti,1,0.8573043704727752,0,f,1,same,1.2366634892459842,0,0,0,0,0.38735505954173277,0,0,6.813472310245743
8,23,female,14,105,105,left,same,valid,anti,2,1.0394322080210259,1,f,1,same,0.8149156208546628,0.31998303521296684,0,0,0,0.3874394130280052,0,0,5.39771353940796
8,23,female,15,165,165,right,same,valid,clock,4,1.2169558847308508,1,f,1,same,1.2002154060901375,0.31749785036579886,0,0,0,0.3874471106846613,0,0,5.502045331500085
8,23,female,16,135,135,right,same,valid,clock,4,0.633401029946981,1,f,1,same,1.4578819513044436,0.31515299246886536,0,0,0,0.38742401771469304,0,0,5.570413030593045
8,23,female,17,45,355,right,change,valid,anti,2,0.7213849238833063,1,f,0,same,1.335965824970117,0.3128994657436486,0,0,0,0.387385208696287,0,0,5.264092484778303
8,23,female,18,15,15,right,same,valid,clock,3,1.0174865098560986,1,f,1,same,0.5490385626926582,0.31053818377935194,0,0,0,0.3874185652084634,0,0,4.677715797387464
8,23,female,19,75,85,left,change,catch,anti,1,0.5854718920072628,0,j,1,change,0.5559048723589513,0,0,0,0,0.3873454374706853,0,0,5.830817696399208
8,23,female,20,15,15,right,same,valid,anti,4,1.5923715581848228,1,f,1,same,0.3930330434741336,0.30822613302835544,0,0,0,0.3874111882869329,0,0,5.2567210163979325
8,23,female,21,75,75,right,same,valid,clock,4,0.8734588650077058,1,f,1,same,0.7818419979012106,0.3060409974398056,0,0,0,0.3873784732468266,0,0,4.7661083085940845
8,23,female,22,165,115,left,change,valid,anti,2,1.4814098386323167,1,j,1,change,0.8624544234571658,0.30394626473938846,0,0,0,0.38747341101134225,0,0,5.390680767918639
8,23,female,23,75,25,right,change,valid,anti,3,1.7534764541505865,1,f,0,same,0.6390341108817665,0.3017612013369358,0,0,0,0.3874358849352575,0,0,5.023716800648799
8,23,female,24,165,165,left,same,valid,anti,2,0.7054786787739431,1,f,1,same,0.7066070269338525,0.29958942389046117,0,0,0,0.38733260804292513,0,0,4.391101573144624
8,23,female,25,105,105,left,same,valid,clock,2,5.673384261885076,1,f,1,same,1.350459550098094,0.297487973924936,0,0,0,0.3866471958717739,0,0,9.81444734674551
8,23,female,26,105,155,left,change,valid,clock,2,2.5213924290983414,1,j,1,change,0.7100308804310771,0.2954875607646297,0,0,0,0.38745544981247804,0,0,6.392864657236714
8,23,female,27,105,155,right,change,valid,clock,3,1.353401658587245,1,j,1,change,0.6548778125325043,0.2935534247530247,0,0,0,0.387409263873451,0,0,4.88368840912517
8,23,female,28,45,95,right,change,valid,clock,2,1.8894927629189624,1,j,1,change,0.5089068301313091,0.29152007860176327,0,0,0,0.3873688511757791,0,0,5.3675271791425985
8,23,female,29,105,105,right,same,valid,anti,3,2.6972890136476053,1,f,1,same,0.9867128825408145,0.28948477520879284,0,0,0,0.3874233762435324,0,0,6.392059931388758
8,23,female,30,165,45,right,change,catch,clock,2,0.9854543156907312,1,j,1,change,1.0984539898236108,0,0,0,0,0.3873499277706287,0,0,6.704244167100114
8,23,female,31,165,215,left,change,valid,clock,1,0.656213035212204,0,j,1,change,0.7567771451449516,0.2875057536447918,0,0,0,0.38744486553514434,0,0,4.964857631841369
8,23,female,32,135,85,right,change,valid,anti,3,0.8013282947886182,1,j,1,change,0.9126046560559189,0.29295725809887946,0,0,0,0.38744678994862625,0,0,4.898916939719129
8,23,female,33,15,65,left,change,valid,clock,2,1.3614120324637042,1,j,1,change,0.9001607527279702,0.29107822664228533,0,0,0,0.3874224140363367,0,0,5.247347836573681
8,23,female,34,75,125,right,change,valid,clock,2,3.449343967218738,1,j,1,change,2.2982992669258238,0.28919260096784266,0,0,0,0.3874083016653458,0,0,8.724295279539547
8,23,female,35,135,135,right,same,valid,anti,3,1.057443441468422,1,f,1,same,1.348177194922755,0.2873747047680758,0,0,0,0.3874012454807598,0,0,5.721172276119432
8,23,female,36,45,45,left,same,valid,anti,3,2.5534669603766815,1,f,1,same,0.5571820418808784,0.2856338786755585,0,0,0,0.38742401771469304,0,0,6.595817542446639
8,23,female,37,105,55,right,change,valid,anti,4,1.1054271044740744,1,j,1,change,0.44526998247420124,0.28394429563886997,0,0,0,0.38743813008477446,0,0,4.331804920854665
8,23,female,38,15,15,left,same,valid,anti,3,1.1534309738308366,1,j,0,change,0.8592640655424475,0.28216527444607076,0,0,0,0.3874490350981432,0,0,5.296739529262595
8,23,female,39,45,105,left,same,catch,anti,1,1.4254315177968238,0,j,0,change,1.668163326310605,0,0,0,0,0.3874127919652892,0,0,7.640341108821303
8,23,female,40,75,75,left,same,valid,clock,4,0.9203109724949172,1,f,1,same,0.899601068947959,0.2803877302594705,0,0,0,0.3873845672251264,0,0,4.5542261417549526
8,23,female,41,165,215,right,change,valid,clock,2,1.5693776957832597,1,j,1,change,1.512457694961995,0.27860159396092143,0,0,0,0.38742497992188873,0,0,5.949605046070246
8,23,female,42,15,65,right,change,valid,clock,2,1.0974866509823187,1,f,0,same,0.6658559537536348,0.276891633285856,0,0,0,0.3875032394307709,0,0,5.0283629778641625
8,23,female,43,105,125,left,change,catch,clock,2,2.257452293772076,1,j,1,change,0.8774372705138376,0,0,0,0,0.38741632005803694,0,0,7.796057645184192
8,23,female,44,135,135,left,same,valid,anti,1,0.6080504016899795,0,f,1,same,1.7464279666128277,0.2752434138993237,0,0,0,0.38748495749587164,0,0,5.283144826276839
8,23,female,45,135,45,left,change,catch,clock,1,0.52148512171334,0,f,0,same,0.5814752045644127,0,0,0,0,0.3874451862702699,0,0,5.518991722453393
8,23,female,46,45,45,right,same,valid,anti,4,1.1202171893819468,1,f,1,same,0.6841930546615913,0.28007175312052224,0,0,0,0.38748110866799834,0,0,4.85226625424275
8,23,female,47,165,165,left,same,valid,clock,2,1.2574673683502624,1,f,1,same,0.6748731169609528,0.2784085301175677,0,0,0,0.3874137541724849,0,0,4.896127180682015
8,23,female,48,15,325,left,change,valid,anti,1,0.7214477880788763,0,f,0,same,2.1111073335559922,0.2768207218837644,0,0,0,0.3875032394307709,0,0,5.684882315660616
8,23,female,49,15,15,left,same,valid,clock,2,1.0413845261718961,1,f,1,same,2.8125402523291996,0.2813528596618202,0,0,0,0.38749457956691913,0,0,6.780277769937129
8,23,female,50,105,15,right,change,catch,anti,1,0.6894755714856728,0,j,1,change,0.6178552917535853,0,0,0,0,0.387448072891857,0,0,5.830733342912936
8,23,female,51,75,75,right,same,valid,anti,2,0.6965022489985131,1,j,0,change,1.0212622104081674,0.2797815751898042,0,0,0,0.38742369697865797,0,0,4.909861724428993
8,23,female,52,165,115,right,change,valid,anti,2,2.4573155320758815,1,j,1,change,2.386733473773347,0.2782314996786765,0,0,0,0.38750131501547,0,0,8.073864788095307
8,23,female,53,75,125,left,change,valid,clock,4,2.1373261933295,1,j,1,change,1.2234251236113778,0.2767498001066536,0,0,0,0.38748207087519404,0,0,6.463281215921597
8,23,female,54,75,25,left,change,valid,anti,3,2.7454564582058083,1,j,1,change,1.1422395433764905,0.2753176249247793,0,0,0,0.38749265515252773,0,0,7.043714991699744
8,23,female,55,45,45,right,same,valid,clock,2,4.537463853088411,1,j,0,change,0.8148559640158055,0.27391790386138004,0,0,0,0.3874063772527734,0,0,8.543082821654025
8,23,female,56,15,325,right,change,valid,anti,4,1.0974513700548414,1,j,1,change,0.5461766381249618,0.27243718670180694,0,0,0,0.38746090231870767,0,0,4.816562277890625
8,23,female,57,75,75,left,same,valid,anti,3,1.4654590112604637,1,f,1,same,0.7103830482210469,0.2709545857170187,0,0,0,0.3874548083404079,0,0,5.282433434515042
8,23,female,58,45,185,right,change,catch,anti,1,0.6094484885652491,0,j,1,change,0.5150582199421478,0,0,0,0,0.38751831400804804,0,0,5.456036117404437
8,23,female,1,165,165,left,same,valid,clock,2,1.2240621046930755,1,j,0,change,1.5616001760190557,0.26944853267842794,0,0,0,0.38749618324618496,0,0,5.65625729673593
8,23,female,2,165,215,left,change,valid,clock,4,0.745495908695375,1,j,1,change,0.5160685373684828,0.2679763678143675,0,0,0,0.3874474314197869,0,0,4.515258038276443
8,23,female,3,45,95,left,change,valid,clock,3,1.3934211336600129,1,j,1,change,0.6453240585124149,0.26656356004739257,0,0,0,0.38746763776907756,0,0,4.861592606655904
8,23,female,4,75,75,right,same,valid,anti,4,1.3188847250257822,1,f,1,same,0.9972144105267944,0.26519327705908646,0,0,0,0.3875080504658399,0,0,5.480870681934903
8,23,female,5,45,355,right,change,valid,anti,3,0.8415366831814026,1,j,1,change,1.0220438432861556,0.2638501277530998,0,0,0,0.38747693910409,0,0,5.2598953375309065
8,23,female,6,75,25,left,change,valid,anti,2,0.6334789687189186,1,j,1,change,0.6921931649940234,0.2624255249387402,0,0,0,0.3874471106846613,0,0,4.729675941487585
8,23,female,7,105,15,right,change,catch,anti,1,0.5054646946991852,0,j,1,change,0.3751103330778278,0,0,0,0,0.3873836050170212,0,0,5.362519212068946
8,23,female,8,75,75,left,same,valid,clock,2,1.0164328931132331,1,f,1,same,0.4898945805925905,0.2609962500555415,0,0,0,0.387484316024711,0,0,4.745535359184942
8,23,female,9,105,105,right,same,valid,anti,4,0.9694047017273988,1,f,1,same,0.9849318372507696,0.2595399793122408,0,0,0,0.3874166407931625,0,0,5.202003186830552
8,23,female,10,105,105,left,same,valid,anti,4,1.0334790328670351,1,f,1,same,0.6550269546278287,0.2581057232535444,0,0,0,0.387411829759003,0,0,4.669351652046316
8,23,female,11,135,185,right,change,valid,clock,4,1.153069825442799,1,j,1,change,0.9366024211703916,0.2567282704452222,0,0,0,0.3874378093496489,0,0,5.1717773760756245
8,23,female,12,135,85,right,change,valid,anti,3,1.0734635477474512,1,j,1,change,0.7660399918913754,0.2553917566743187,0,0,0,0.3874224140363367,0,0,4.8390606036500685
8,23,female,13,45,355,right,same,catch,clock,2,0.5854779859855626,1,j,0,change,2.013295777322128,0,0,0,0,0.38753627520600276,0,0,7.172108375307289
8,23,female,14,135,135,right,same,valid,anti,1,0.6638452617080475,0,j,0,change,0.4737535569583997,0.25408161781313937,0,0,0,0.3874269043371896,0,0,4.568811918024949
8,23,female,15,135,185,left,change,valid,clock,1,0.761430378544901,0,j,1,change,0.5220573141850764,0.2576944403483234,0,0,0,0.3874233762435324,0,0,4.084762424659857
8,23,female,16,75,125,right,change,valid,clock,2,0.6654816552018019,1,f,0,same,2.0961068460383103,0.26147415538340185,0,0,0,0.3874852782319067,0,0,5.676559224486482
8,23,female,17,135,85,left,change,valid,anti,3,0.8654407934755,1,j,1,change,0.6222060713971587,0.26017211368748683,0,0,0,0.3874740524825029,0,0,4.340968660273575
8,23,female,18,135,135,left,same,valid,anti,3,0.9934563504375546,1,f,1,same,0.6189736971082311,0.2588533247495488,0,0,0,0.3875317849069688,0,0,4.626807987087886
8,23,female,19,15,325,right,change,valid,anti,4,0.9134257394234737,1,j,1,change,1.1569202574082738,0.2575879365044573,0,0,0,0.38753050196282857,0,0,4.920021989639281
8,23,female,20,45,355,left,change,valid,anti,1,0.49746522583518527,0,j,1,change,0.943963305271609,0.2563671256842252,0,0,0,0.38748175014006847,0,0,4.67710896546123
8,23,female,21,15,15,right,same,valid,clock,4,3.857474039652516,1,f,1,same,0.3987835136722424,0.25993518462972415,0,0,0,0.38743171537134913,0,0,7.243765860379426
8,23,female,22,75,75,left,same,valid,anti,3,0.8095080171078735,1,f,1,same,0.6592548925018491,0.2586846734869551,0,0,0,0.38740188695192046,0,0,4.4839933646198915
8,23,female,23,75,75,right,same,valid,clock,4,1.1214856990372937,1,f,1,same,0.5800508173633716,0.25748728956433325,0,0,0,0.38746282673491805,0,0,4.6698455850091705
8,23,female,24,105,125,left,change,catch,clock,1,0.8334608792265499,0,j,1,change,1.1376430801901734,0,0,0,0,0.3875070882586442,0,0,6.766847925096954
8,23,female,25,45,45,right,same,valid,anti,4,2.7200590025368,1,f,1,same,0.4066165207113954,0.25633077536975457,0,0,0,0.3874150371157157,0,0,6.568333701110532
8,23,female,26,45,45,left,same,valid,anti,2,0.5294829868962552,1,f,1,same,0.813917812121872,0.2552039273663199,0,0,0,0.38745320466296107,0,0,4.1671453112285235
8,23,female,27,135,135,left,same,valid,clock,2,0.6894245745115768,1,f,1,same,0.677233731645174,0.25409635720351975,0,0,0,0.3874625059979735,0,0,4.520693225293144
8,23,female,28,75,85,left,change,catch,anti,1,0.48145217574165144,0,j,1,change,0.5105223758037027,0,0,0,0,0.38751542738646094,0,0,5.503114985027423
8,23,female,29,165,115,right,change,valid,anti,2,0.8800435687353456,1,f,0,same,2.004355590679552,0.2529208770893231,0,0,0,0.38743428125599166,0,0,5.942944327982332
8,23,female,30,105,155,right,change,valid,clock,2,0.9774391307801125,1,j,1,change,0.5854289134258579,0.25174298842749826,0,0,0,0.38743331905061495,0,0,4.509954032160749
8,23,female,31,15,325,left,change,valid,anti,2,0.6334523476580216,1,f,0,same,1.6905551678228221,0.2505515284012546,0,0,0,0.38756097185614635,0,0,5.248290799503593
8,23,female,32,105,155,left,change,valid,clock,1,0.7214067339100438,0,j,1,change,0.9272770309617044,0.24933244428920154,0,0,0,0.3874737317473773,0,0,4.493450256459255
8,23,female,33,15,15,left,same,valid,clock,3,0.8494918905180384,1,f,1,same,0.6360358736455964,0.2525917678266122,0,0,0,0.387513182236944,0,0,4.367639436633908
8,23,female,34,15,15,left,same,valid,anti,3,0.9854421277359506,1,f,1,same,0.38879772867767315,0.2514634716740176,0,0,0,0.38752216283683083,0,0,4.1903011451559
8,23,female,35,135,15,right,change,catch,clock,1,1.5535109011652821,0,j,1,change,0.23310909632164112,0,0,0,0,0.3874855989670323,0,0,6.111511781264198
8,23,female,36,135,135,right,same,valid,clock,2,0.7600066328141111,1,f,1,same,0.8232441645359359,0.2503192943162416,0,0,0,0.38748976853094064,0,0,4.923444560194184
8,23,female,37,15,65,left,change,valid,clock,2,0.7454125174153887,1,f,0,same,0.6852755376185087,0.2491519483102504,0,0,0,0.38752761534306046,0,0,4.4081881255951885
8,23,female,38,105,55,right,change,valid,anti,3,0.913260560544586,1,j,1,change,1.1720330024199939,0.24802542367692587,0,0,0,0.387440695971236,0,0,4.896118520819073
8,23,female,39,165,115,left,change,valid,anti,2,1.193407791053687,1,f,0,same,0.9841181308038358,0.2469400056238798,0,0,0,0.38743331905061495,0,0,5.515658637155866
8,23,female,40,45,45,left,same,valid,clock,2,0.6493871382408543,1,j,0,change,0.9693732696305233,0.24588575214882263,0,0,0,0.3874708451257902,0,0,4.520408091262652
8,23,female,41,105,55,left,change,valid,anti,2,5.673399977933514,1,f,0,same,1.4306729804557108,0.24485346307136036,0,0,0,0.3874031698960607,0,0,10.19463652948616
8,23,female,42,45,45,right,same,valid,clock,3,0.7854720844497933,1,f,1,same,0.5338260688822629,0.24376341848622962,0,0,0,0.3874188859426795,0,0,4.510557977466306
8,23,female,43,75,25,right,change,valid,anti,3,0.3934884881546168,1,j,1,change,1.0405223886355088,0.24267701045654122,0,0,0,0.3874955417741148,0,0,4.34522193626799
8,23,female,44,75,125,left,change,valid,clock,2,1.721393263011123,1,j,1,change,1.044860659585538,0.24158453413469805,0,0,0,0.3874445448000188,0,0,5.76733832996797
8,23,female,45,135,45,left,change,catch,clock,1,0.4975027519121795,0,j,1,change,0.5015677560568292,0,0,0,0,0.3874368471424532,0,0,5.690482040085044
8,23,female,46,15,15,right,same,valid,anti,4,3.064339258817199,1,f,1,same,0.7579459060016234,0.24047640572677276,0,0,0,0.3874644304123649,0,0,6.977441375931448
8,23,female,47,105,105,right,same,valid,clock,4,0.9614892656172742,1,f,1,same,0.7814802080411027,0.23933948939061478,0,0,0,0.3874692414465244,0,0,4.843493491631307
8,23,female,48,45,105,left,same,catch,anti,1,0.44147247189721384,0,j,0,change,0.3360694225993939,0,0,0,0,0.3874483936269826,0,0,5.01960304468048
8,23,female,49,165,165,left,same,valid,anti,2,0.7444156708897935,1,f,1,same,0.47637428828784323,0.2382328169880275,0,0,0,0.38749746618668723,0,0,4.269698623915247
8,23,female,50,165,165,right,same,valid,clock,2,1.0254247182019753,1,f,1,same,0.5812378601531236,0.23716693069906225,0,0,0,0.38748848558861937,0,0,4.464535613207772
8,23,female,51,45,95,right,change,valid,clock,2,1.3934022102530434,1,f,0,same,0.6985305815069296,0.23613226298053036,0,0,0,0.38742465918585367,0,0,5.298718468475272
8,23,female,52,15,155,left,same,catch,anti,1,0.41745321749294817,0,j,0,change,0.35097304793998774,0,0,0,0,0.387513182236944,0,0,5.206858162981007
8,23,female,53,45,185,right,change,catch,anti,2,3.6320295641326084,1,f,0,same,0.7866790128518915,0,0,0,0,0.38741535785084125,0,0,9.10611764841633
8,23,female,54,105,105,left,same,valid,clock,4,1.424385598709705,1,f,1,same,0.35166102599578153,0.2351199488909263,0,0,0,0.3874766183671454,0,0,5.309147510193725
8,23,female,55,15,65,right,change,valid,clock,3,1.208911192135929,1,j,1,change,1.5115913878616993,0.23412166400808176,0,0,0,0.38748848558861937,0,0,5.8671718039968255
8,23,female,56,165,165,right,same,valid,anti,2,4.265498910781389,1,j,0,change,0.7510523338005441,0.2330594168631916,0,0,0,0.3874490350990527,0,0,8.28113766232309
8,23,female,57,165,45,right,change,catch,clock,2,0.5854119144332799,1,f,0,same,1.5363245999142237,0,0,0,0,0.3875282568151306,0,0,6.719721267854766
8,23,female,58,165,215,right,change,valid,clock,4,1.4562061073211225,1,j,1,change,0.5791915664467524,0.23199325123950976,0,0,0,0.38749714545338065,0,0,5.495204359951458
8,23,female,1,165,215,right,change,valid,clock,2,0.9202160347322206,1,j,1,change,2.308266449250368,0.23091392835832142,0,0,0,0.3874259421299939,0,0,6.009109535087191
8,23,female,2,15,325,left,change,valid,anti,3,0.8174872796225827,1,j,1,change,0.3911028560887644,0.22980742189897663,0,0,0,0.3875317849069688,0,0,4.347076750767883
8,23,female,3,15,15,left,same,valid,anti,4,0.46535220627811213,1,f,1,same,0.9637972796481336,0.2286953457341216,0,0,0,0.38740092474472476,0,0,4.184678969231754
8,23,female,4,75,125,right,change,valid,clock,3,0.8173785502240207,1,f,0,same,0.8777939286010223,0.2276264422615969,0,0,0,0.3875349922636815,0,0,4.906940784494509
8,23,female,5,75,125,left,change,valid,clock,4,1.0495081197459513,1,f,0,same,0.5944037395220221,0.22659109604571476,0,0,0,0.3874605815835821,0,0,4.7115001706315525
8,23,female,6,45,95,left,change,valid,clock,3,0.6094439982643962,1,j,1,change,0.6282352609123336,0.22558040849085054,0,0,0,0.38753531299880706,0,0,4.390918753801088
8,23,female,7,135,15,right,change,catch,clock,1,0.6094468848878023,0,f,0,same,0.6183482625110628,0,0,0,0,0.387402207688865,0,0,5.54998954401708
8,23,female,8,135,185,left,change,valid,clock,2,0.6963021099272737,1,f,0,same,1.4975531074142054,0.22458603597718907,0,0,0,0.38741407490852,0,0,5.5071100687910075
8,23,female,9,75,25,right,change,valid,anti,2,3.2894110394663585,1,j,1,change,1.8661435253725358,0.2235307137127006,0,0,0,0.3874881648516748,0,0,8.174277510783213
8,23,female,10,135,135,left,same,valid,clock,3,1.2014216930219845,1,f,1,same,0.6745270431511017,0.22247410210009472,0,0,0,0.38754461433563847,0,0,5.015336297785325
8,23,female,11,165,165,right,same,valid,anti,1,2.273438402069587,0,j,0,change,0.5714281590535393,0.22140699643656442,0,0,0,0.3874833538193343,0,0,5.934409230516394
8,23,female,12,75,25,left,change,valid,anti,2,1.7133806439869659,1,j,1,change,1.34178493260697,0.2242334712376226,0,0,0,0.38743716787757876,0,0,6.157399436531705
8,23,female,13,75,75,left,same,valid,clock,3,1.2574596706945158,1,f,1,same,0.5934344762645196,0.22322232133787295,0,0,0,0.3874336397857405,0,0,5.1216662732313125
8,23,female,14,135,135,left,same,valid,anti,4,1.0971348039274744,1,f,1,same,0.8362785422687011,0.22220731848188263,0,0,0,0.38742305550840683,0,0,5.026926402706522
8,23,female,15,165,165,left,same,valid,anti,2,0.7454760230830288,1,f,1,same,0.8538012952594727,0.22118000803114157,0,0,0,0.3874567327547993,0,0,4.627209868909631
8,23,female,16,15,325,right,change,valid,anti,4,1.305456804599089,1,j,1,change,0.5409447975398507,0.220131889061145,0,0,0,0.38739066120251664,0,0,4.792602038853147
8,23,female,17,105,155,left,change,valid,clock,4,1.0093930654384167,1,j,1,change,0.6144189295646356,0.2190512985207656,0,0,0,0.3874570534899249,0,0,4.6168359937291825
8,23,female,18,135,135,right,same,valid,anti,3,0.7534443805816409,1,f,1,same,0.878138077998301,0.2180084131342513,0,0,0,0.3874759768968943,0,0,4.679359567802749
8,23,female,19,105,55,left,change,valid,anti,3,1.0334559398961574,1,j,1,change,0.4581289177876897,0.21699961410215646,0,0,0,0.3874730902753072,0,0,4.477447149172804
8,23,female,20,135,85,left,change,valid,anti,2,0.7614704705065378,1,f,0,same,1.1986454048856103,0.21601644518649205,0,0,0,0.3874528839260165,0,0,5.151702849929279
8,23,female,21,165,115,right,change,valid,anti,2,4.393381041698376,1,f,0,same,2.561040171503919,0.21505097746466262,0,0,0,0.38741632005803694,0,0,9.994451914022648
8,23,female,22,45,45,right,same,valid,anti,3,0.9454970633432822,1,f,1,same,0.49069609908474376,0.2140956765178511,0,0,0,0.3874185652093729,0,0,4.545296860125745
8,23,female,23,15,65,left,change,valid,clock,3,0.6894733263379749,1,f,0,same,0.7559233467363811,0.21307568589621917,0,0,0,0.3874750146896986,0,0,4.284535856968432
8,23,female,24,45,355,left,change,valid,anti,4,1.4734668192522804,1,j,1,change,1.1362023354686244,0.21204887661157212,0,0,0,0.38748752338142367,0,0,5.680818594459197
8,23,female,25,135,185,right,change,valid,clock,4,0.8014585134806111,1,j,1,change,0.6628865827278787,0.21100655854836026,0,0,0,0.3875006735452189,0,0,4.681240682628413
8,23,female,26,165,45,right,change,catch,clock,3,1.145522914639514,1,f,0,same,1.05008897208063,0,0,0,0,0.3874807879310538,0,0,6.485929966720505
8,23,female,27,45,355,right,same,catch,clock,2,0.8881443900772865,1,j,0,change,0.6528956659622054,0,0,0,0,0.3874759768968943,0,0,5.8933274788378185
8,23,female,28,75,75,right,same,valid,anti,4,1.1844413040871586,1,f,1,same,1.017114135718657,0.20993729076681722,0,0,0,0.38743171537134913,0,0,5.4739533752945135
8,23,female,29,165,115,left,change,valid,anti,1,0.593438645826609,0,j,1,change,0.9015209927929391,0.2088341163946985,0,0,0,0.3876081200014596,0,0,4.965521233985783
8,23,female,30,45,105,left,same,catch,anti,1,1.1534322567731579,0,f,1,same,1.1642991027092648,0,0,0,0,0.3874653926195606,0,0,6.9852551388266875
8,23,female,31,75,85,left,change,catch,anti,1,0.600145229120244,0,f,0,same,0.9172530784217088,0,0,0,0,0.3874852782319067,0,0,5.6904794741985825
8,23,female,32,15,15,right,same,valid,clock,3,1.0803644968691515,1,f,1,same,0.5745816323651525,0.21181238876187142,0,0,0,0.3875016357524146,0,0,4.621208904136438
8,23,female,33,105,105,right,same,valid,clock,4,0.34544452683621785,1,f,1,same,1.237544550187522,0.21080724469052564,0,0,0,0.38742401771378354,0,0,4.714644342608153
8,23,female,34,45,95,right,change,valid,clock,3,1.3854675300026429,1,f,0,same,0.5241427376458887,0.20976932079844945,0,0,0,0.3875138237090141,0,0,4.8505804674532556
8,23,female,35,165,215,left,change,valid,clock,3,1.0334113576354866,1,j,1,change,0.5687763163641648,0.20871765099471445,0,0,0,0.38747725983921555,0,0,4.805294191604844
8,23,female,36,105,105,left,same,valid,anti,2,2.4494257548194582,1,f,1,same,0.5290852746402379,0.20770389508946674,0,0,0,0.3874557705494226,0,0,6.095654287979414
8,23,female,37,45,45,left,same,valid,anti,3,3.3294035727394657,1,f,1,same,0.6133977071258414,0.2067195331466804,0,0,0,0.38745224245576537,0,0,7.026444978433574
8,23,female,38,105,155,right,change,valid,clock,4,0.7294498228256998,1,f,0,same,0.8195531382061745,0.2057566042655652,0,0,0,0.3874798257238581,0,0,4.780932391482565
8,23,female,39,45,355,right,change,valid,anti,2,1.3453989823701704,1,j,1,change,1.4520628436675906,0.2048075738933287,0,0,0,0.3874730902771262,0,0,5.822234809316797
8,23,female,40,105,105,right,same,valid,anti,3,0.7614188320603716,1,f,1,same,0.8541746316022909,0.20379883141828115,0,0,0,0.3874208103570709,0,0,4.946336749380862
8,23,female,41,105,125,left,change,catch,clock,2,0.6894935326854466,1,j,1,change,0.33662814417039044,0,0,0,0,0.3875670658326271,0,0,5.565707838011804
8,23,female,42,105,105,left,same,valid,clock,3,1.0962800433117081,1,f,1,same,0.46182443441466603,0.20278768681639558,0,0,0,0.38744967657112284,0,0,4.67728472861927
8,23,female,43,15,15,left,same,valid,clock,3,0.7054828483378515,1,f,1,same,0.5754174695757683,0.20176558610959378,0,0,0,0.38746763776907756,0,0,4.451958283832937
8,23,female,44,105,15,right,change,catch,anti,1,0.5055041451869329,0,j,1,change,0.4130629873579892,0,0,0,0,0.38752184209988627,0,0,5.253514621697832
8,23,female,45,45,45,right,same,valid,clock,2,0.6483328800259187,1,f,1,same,0.6697990783322894,0.20072389442867822,0,0,0,0.38748559896885126,0,0,4.570246568770017
8,23,female,46,75,75,left,same,valid,anti,2,0.5613782269210787,1,f,1,same,1.1786969278655306,0.1996392045445225,0,0,0,0.3874984283957019,0,0,4.837866825409947
8,23,female,47,105,55,right,change,valid,anti,4,1.609477354777482,1,j,1,change,0.5907181656984903,0.19854105198260102,0,0,0,0.38746090232052666,0,0,5.352626440424501
8,23,female,48,135,45,left,change,catch,clock,2,0.6574603763128835,1,f,0,same,0.4499921740498394,0,0,0,0,0.387486561174228,0,0,5.518823336215064
8,23,female,49,135,135,right,same,valid,clock,3,6.167896153479887,1,j,0,change,0.4844000574757956,0.19747906856737552,0,0,0,0.38747725984103454,0,0,9.836956898256176
8,23,female,50,165,165,right,same,valid,clock,4,0.8734861275406729,1,f,1,same,0.49793766950824647,0.1964440840947626,0,0,0,0.3873977173880121,0,0,4.615509430912425
8,23,female,51,45,185,right,change,catch,anti,3,1.2173975377754687,1,f,0,same,1.5243560268809233,0,0,0,0,0.3875141444441397,0,0,7.188240418341593
8,23,female,52,135,85,right,change,valid,anti,4,1.0792986921678676,1,j,1,change,0.5704640275671409,0.19542744770962306,0,0,0,0.38745609128454817,0,0,4.514970659100072
8,23,female,53,15,65,right,change,valid,clock,3,0.8332594572129892,1,f,0,same,1.67806283340542,0.19442088138967273,0,0,0,0.3874294702200132,0,0,5.542212344989821
8,23,female,54,15,155,left,same,catch,anti,1,0.5854327622528217,0,j,0,change,0.7481756553916057,0,0,0,0,0.3874775805761601,0,0,5.908400452623027
8,23,female,55,75,75,right,same,valid,clock,4,0.9842146722457983,1,f,1,same,0.9966435009955603,0.19334474500971566,0,0,0,0.38745063877649955,0,0,5.153032620102749
8,23,female,56,45,45,left,same,valid,clock,1,0.6253252259903093,0,j,0,change,1.2389294869008154,0.1922595352375187,0,0,0,0.38741920667962404,0,0,5.267499339282949
8,23,female,57,165,165,left,same,valid,clock,2,0.9529307544471521,1,f,1,same,0.6462474565651064,0.19513105618510795,0,0,0,0.38751927621524374,0,0,4.8092616921003355
8,23,female,58,15,15,right,same,valid,anti,3,0.7453990465164679,1,f,1,same,0.5412443646746397,0.19417007846917422,0,0,0,0.3874785427815368,0,0,4.266785702373454
8,23,female,1,45,355,left,change,valid,anti,2,0.8793238378457318,1,j,1,change,0.9742413959447731,0.19314099284916902,0,0,0,0.38749233441740216,0,0,4.753390817722902
8,23,female,2,135,135,right,same,valid,clock,2,0.8734749017912691,1,j,0,change,0.6846911571883538,0.19210203625158717,0,0,0,0.38741343343826884,0,0,4.694244911206624
8,23,female,3,15,325,right,change,valid,anti,2,0.6334792894540442,1,f,0,same,0.6291288305474154,0.19104422450678255,0,0,0,0.38746667556188186,0,0,4.14896889890224
8,23,female,4,75,25,right,change,valid,anti,2,1.4174124840592413,1,f,0,same,0.899197262713642,0.18995573315334646,0,0,0,0.38745224245576537,0,0,5.158562424145202
8,23,female,5,15,15,right,same,valid,clock,4,1.0014631962203566,1,f,1,same,0.8563915566974174,0.18880797644939906,0,0,0,0.387457694963814,0,0,4.712498941571539
8,23,female,6,105,55,right,change,valid,anti,4,0.8973851060618472,1,j,1,change,0.6643074418370816,0.18769827938067474,0,0,0,0.3875423691843025,0,0,4.624775485017381
8,23,female,7,135,45,left,change,catch,clock,4,0.9054952287351625,1,f,0,same,0.5901366718917416,0,0,0,0,0.38742658360024507,0,0,5.705863240867984
8,23,female,8,75,125,left,change,valid,clock,4,1.0243925907489029,1,j,1,change,0.5351404437442397,0.18661679374418189,0,0,0,0.38744294112075295,0,0,4.7183975916595955
8,23,female,9,15,325,left,change,valid,anti,3,0.9775016742405569,1,j,1,change,0.6986659319682076,0.18555420577176934,0,0,0,0.38747693910409,0,0,4.694571099405948
8,23,female,10,135,15,right,change,catch,clock,2,1.4734068416782975,1,j,1,change,0.6426536131511966,0,0,0,0,0.38746186452590337,0,0,6.439040012419355
8,23,female,11,45,95,left,change,valid,clock,3,0.7524042347376962,1,j,1,change,1.0179169371549506,0.18450157563707353,0,0,0,0.38743235684341926,0,0,5.209528608340406
8,23,female,12,105,155,left,change,valid,clock,3,0.777386337686039,1,j,1,change,0.8446872698732477,0.1833750152091317,0,0,0,0.3874900892678852,0,0,4.925696124742899
8,23,female,13,75,85,left,change,catch,anti,2,0.6333567684214358,1,f,0,same,1.675524531148767,0,0,0,0,0.38750131501547,0,0,6.641952484931608
8,23,female,14,15,15,left,same,valid,clock,2,0.6483941405440419,1,f,1,same,0.981459873399217,0.1822374383515049,0,0,0,0.38749906986777205,0,0,4.955600237601175
8,23,female,15,15,15,right,same,valid,anti,4,0.9614257599514531,1,f,1,same,0.9721097865440242,0.18107803965487845,0,0,0,0.3875151066513354,0,0,5.009348162440801
8,23,female,16,135,135,right,same,valid,anti,4,0.689430347754751,1,f,1,same,0.5013714658143726,0.17987748385305802,0,0,0,0.38745256319089094,0,0,4.176187171084166
8,23,female,17,135,85,right,change,valid,anti,4,1.2334439443820884,1,j,1,change,0.8421040646207985,0.1786056968291163,0,0,0,0.38746475114930945,0,0,4.9774975046766485
8,23,female,18,45,45,right,same,valid,anti,4,0.5133942431803007,1,f,1,same,1.1269712415560207,0.17737157947529747,0,0,0,0.3875234457791521,0,0,4.536160383240713
8,23,female,19,75,75,left,same,valid,anti,4,1.513441391325614,1,f,1,same,0.5199000459288072,0.1761632237377191,0,0,0,0.38750099428034446,0,0,5.130868500931683
8,23,female,20,135,185,right,change,valid,clock,3,0.7614800925784948,1,j,1,change,0.5498962099300115,0.17496922947559718,0,0,0,0.3874997113380232,0,0,4.461296503468475
8,23,female,21,45,45,right,same,valid,clock,4,0.7294639351948717,1,f,1,same,0.5328500701780285,0.17369318707335113,0,0,0,0.38749425882997457,0,0,3.9345975023661595
8,23,female,22,75,25,left,change,valid,anti,1,0.641489984065629,0,j,1,change,0.4267811735844589,0.17240494088788488,0,0,0,0.38748399528958544,0,0,3.754112793762033
8,23,female,23,15,15,left,same,valid,anti,2,0.7694862968892267,1,f,1,same,0.43657932819951384,0.175823118178638,0,0,0,0.38748110866799834,0,0,4.048858950705835
8,23,female,24,105,105,right,same,valid,clock,3,0.6334754406270804,1,f,1,same,0.8801038670462731,0.17469372744431544,0,0,0,0.3873977173880121,0,0,4.231302071439131
8,23,female,25,45,45,left,same,valid,anti,3,3.273437760597517,1,f,1,same,0.62946047125115,0.17348553250555238,0,0,0,0.38758374409007956,0,0,6.938913642556145
8,23,female,26,135,135,left,same,valid,clock,4,0.4814852115177928,1,f,1,same,0.6532010063401685,0.1722653643033678,0,0,0,0.3874653926195606,0,0,4.2114084402237495
8,23,female,27,15,65,right,change,valid,clock,1,0.577465687696531,0,j,1,change,1.7109642212908511,0.17102090339145642,0,0,0,0.3874730902753072,0,0,5.341767933616211
8,23,female,28,165,165,left,same,valid,anti,1,1.5373637835509726,0,f,1,same,1.4152837612800795,0.17435374002418752,0,0,0,0.3874301116939023,0,0,5.693485088355374
8,23,female,29,15,155,left,same,catch,anti,1,1.329411591132157,0,j,0,change,3.176797210369841,0,0,0,0,0.3875292190205073,0,0,9.262215860251672
8,23,female,30,135,185,left,change,valid,clock,3,0.7202726125069603,1,j,1,change,0.5165223783715192,0.17734484760526215,0,0,0,0.38750003207314876,0,0,4.106678935877426
8,23,female,31,105,155,right,change,valid,clock,3,0.6974442497230484,1,j,1,change,0.6387489768530941,0.17629998025155263,0,0,0,0.3874968247164361,0,0,4.226586615313863
8,23,female,32,135,135,left,same,valid,anti,1,0.6655047481708607,0,f,1,same,0.9475298861507326,0.1752710792751192,0,0,0,0.38746186452590337,0,0,4.565543621338293
8,23,female,33,105,125,left,change,catch,clock,2,1.0574466488251346,1,f,0,same,1.158345286083204,0,0,0,0,0.38749522103898926,0,0,6.797929137939718
8,23,female,34,105,105,left,same,valid,clock,2,0.9202474668290961,1,f,1,same,0.6615885653882287,0.17833639467380913,0,0,0,0.3874775805761601,0,0,4.774367894100578
8,23,female,35,75,125,right,change,valid,clock,3,0.6814645561389625,1,f,0,same,0.8146301660890458,0.1773163405107388,0,0,0,0.3875093334099802,0,0,4.407372494733863
8,23,female,36,75,75,right,same,valid,anti,4,1.1614185754715436,1,f,1,same,0.54710837530547,0.17631997693467022,0,0,0,0.3874727695401816,0,0,4.718807812609157
8,23,female,37,45,355,right,same,catch,clock,3,0.6974737574073515,1,f,1,same,0.9044910052889463,0,0,0,0,0.3874788635166624,0,0,6.298795445040014
8,23,female,38,45,105,left,same,catch,anti,2,0.6723726615146006,1,j,0,change,0.772147120178488,0,0,0,0,0.38750003207314876,0,0,6.2830697741246695
8,23,female,39,165,115,right,change,valid,anti,3,0.7683704574192234,1,j,1,change,0.5960212096106261,0.17533946353314478,0,0,0,0.3875349922636815,0,0,4.6060874992617755
8,23,female,40,165,215,right,change,valid,clock,2,0.5933812341409066,1,j,1,change,1.1408199672077899,0.17436726348902543,0,0,0,0.38747341101043276,0,0,4.434822658822668
8,23,female,41,75,75,right,same,valid,clock,2,0.6894364417312318,1,f,1,same,0.8202873022019048,0.17332679600455647,0,0,0,0.38752376651427767,0,0,4.611276361267301
8,23,female,42,105,105,left,same,valid,anti,1,0.40935239615282626,0,f,1,same,1.1885181754496443,0.172277000566172,0,0,0,0.38737141706224065,0,0,4.656005839955469
8,23,female,43,15,65,left,change,valid,clock,1,0.777478068093842,0,j,1,change,0.5499302079133486,0.175054945407146,0,0,0,0.3874785427815368,0,0,4.485721167786323
8,23,female,44,165,165,right,same,valid,anti,2,1.0254721870842332,1,j,0,change,0.535876852889487,0.17784870687001986,0,0,0,0.3874862404391024,0,0,4.383469025913655
8,23,female,45,165,165,right,same,valid,clock,1,1.2414764490204107,0,f,1,same,1.7318088338306552,0.17691951600631334,0,0,0,0.3875064467865741,0,0,6.149997498261655
8,23,female,46,165,215,left,change,valid,clock,2,1.7453913488607213,1,f,0,same,0.8000126369861391,0.17965006332694672,0,0,0,0.38745994011151197,0,0,5.795081646476319
8,23,female,47,45,45,left,same,valid,clock,2,1.033466524173491,1,f,1,same,0.8042376882385724,0.17870154546561295,0,0,0,0.3874692414465244,0,0,4.605537437553721
8,23,female,48,165,165,left,same,valid,clock,2,0.8414670835372817,1,j,0,change,0.5954252826959419,0.1777849823351983,0,0,0,0.38752953975745186,0,0,4.355012393227298
8,23,female,49,165,45,right,change,catch,clock,1,0.6493986847272026,0,j,1,change,0.5822055197331792,0,0,0,0,0.3874413374433061,0,0,5.549755086227378
8,23,female,50,135,85,left,change,valid,anti,2,0.8003715402246598,1,f,0,same,0.49899738023123064,0.1768935795815455,0,0,0,0.38745994011333096,0,0,4.525800620431255
8,23,female,51,165,115,left,change,valid,anti,2,0.721477616496486,1,j,1,change,0.9400788753209781,0.1760209464294809,0,0,0,0.3875112578225526,0,0,4.288673026640026
8,23,female,52,45,185,right,change,catch,anti,3,0.7854977433034946,1,f,0,same,0.7880697228083591,0,0,0,0,0.38742113109401544,0,0,6.174006809860657
8,23,female,53,105,55,left,change,valid,anti,1,1.2403997393048485,0,j,1,change,0.5081797223192552,0.17516100415537167,0,0,0,0.3874079809302202,0,0,4.970780657842624
8,23,female,54,45,95,right,change,valid,clock,3,1.1694437031892448,1,j,1,change,0.5061279761066544,0.17772173842760913,0,0,0,0.3874958625092404,0,0,4.760370988558861
8,23,female,55,45,355,right,change,valid,anti,3,0.7214179596594477,1,j,1,change,0.5720648194001114,0.17686521619066448,0,0,0,0.3875426899194281,0,0,4.537497851069929
8,23,female,56,105,105,right,same,valid,anti,2,3.97733585388778,1,f,1,same,1.6561488880743127,0.17602671798583425,0,0,0,0.3874041321014374,0,0,8.596625475651308
8,23,female,57,105,15,right,change,catch,anti,2,0.7454590240904508,1,j,1,change,0.5269171013715095,0,0,0,0,0.3874833538175153,0,0,5.643457376792867
8,23,female,58,75,75,left,same,valid,clock,2,0.776090565495906,1,f,1,same,0.64196178626662,0.17520060591238157,0,0,0,0.38748848559043836,0,0,4.5507496876034566
8,23,female,1,15,15,left,same,valid,anti,4,0.8883503023898811,1,f,1,same,0.33035711994853045,0.17438145706587355,0,0,0,0.3866609875076392,0,0,4.04120042388422
8,23,female,2,135,135,right,same,valid,anti,4,0.7295062723078445,1,f,1,same,0.5444488349603489,0.17350612119968817,0,0,0,0.3874339605208661,0,0,4.113778420389281
8,23,female,3,75,75,right,same,valid,anti,4,0.7214596553003503,1,f,1,same,0.45657495336490683,0.17262527976260833,0,0,0,0.38750580531632295,0,0,4.025640252586527
8,23,female,4,105,105,right,same,valid,clock,3,0.7294055613001547,1,f,1,same,0.5820140405248821,0.1717325366217612,0,0,0,0.38744775215491245,0,0,4.263682584565686
8,23,female,5,105,55,right,change,valid,anti,3,1.7213650382691412,1,f,0,same,0.9768534674094553,0.17082139202144925,0,0,0,0.38752023842243943,0,0,5.715652735618278
8,23,female,6,45,45,right,same,valid,clock,3,0.8013831405914971,1,f,1,same,0.6917531156250334,0.16987912430599422,0,0,0,0.3874730902753072,0,0,4.492882233551427
8,23,female,7,45,45,right,same,valid,anti,3,0.7694988055791327,1,f,1,same,0.41101027893819264,0.1689022754845962,0,0,0,0.3875061260514485,0,0,4.215003245844855
8,23,female,8,15,65,right,change,valid,clock,1,0.7534687564948399,0,j,1,change,0.43939731197860965,0.16795960012464595,0,0,0,0.3874070187230245,0,0,3.985942475414049
8,23,female,9,105,55,left,change,valid,anti,2,1.0894275252794614,1,f,0,same,0.6523074367050867,0.17065284818539334,0,0,0,0.3874442240648932,0,0,4.46981556414903
8,23,female,10,45,95,right,change,valid,clock,2,0.7772936450710404,1,j,1,change,1.2395536385538435,0.16973131094847044,0,0,0,0.3874394130289147,0,0,4.96761371363209
8,23,female,11,135,185,left,change,valid,clock,4,1.3052855317419017,1,f,0,same,0.7093980689151067,0.16879400652647153,0,0,0,0.38747148659786035,0,0,5.245708235723214
8,23,female,12,45,45,left,same,valid,anti,4,0.8254928424630634,1,f,1,same,0.3728934079827013,0.1678890094083888,0,0,0,0.3874326775785448,0,0,4.275077040712858
8,23,female,13,105,105,left,same,valid,clock,1,1.7531887542354525,0,j,0,change,0.7811710188361758,0.16700971243835322,0,0,0,0.38748399528776645,0,0,5.319745900356793
8,23,female,14,15,15,right,same,valid,clock,2,0.7454368933285878,1,f,1,same,0.820068239725515,0.1695905527312359,0,0,0,0.38745544981247804,0,0,4.3905088535884715
8,23,female,15,135,85,right,change,valid,anti,2,1.4414320592004515,1,j,1,change,0.5634729517187225,0.16868990081209168,0,0,0,0.3874281872795109,0,0,4.973362580152752
8,23,female,16,105,125,left,change,catch,clock,2,0.6974776062343153,1,j,1,change,0.9258965845492639,0,0,0,0,0.3874891270588705,0,0,5.986861062430762
8,23,female,17,45,95,left,change,valid,clock,1,1.3520686810570623,0,j,1,change,1.4585875698248856,0.1678198191383558,0,0,0,0.3875093334081612,0,0,5.867966907773734
8,23,female,18,105,155,right,change,valid,clock,4,0.6813545437998982,1,f,0,same,1.1812086090576486,0.17033548210047644,0,0,0,0.38750965414510574,0,0,5.2092784345022665
8,23,female,19,135,135,right,same,valid,clock,3,0.8414074266984244,1,f,1,same,0.6324105981329922,0.16945650787705796,0,0,0,0.38748944779581507,0,0,4.693737507344849
8,23,female,20,165,165,left,same,valid,anti,2,0.6814196531449852,1,f,1,same,0.897289847560387,0.16858992396427003,0,0,0,0.38748175014006847,0,0,4.396991884103045
8,23,female,21,165,215,left,change,valid,clock,1,0.8494412142790679,0,j,1,change,0.6198499470156094,0.16775229419272453,0,0,0,0.3874740524825029,0,0,4.356376482119231
8,23,female,22,75,75,left,same,valid,clock,1,0.6654550341390859,0,j,0,change,1.2624855989670323,0.1701858094076969,0,0,0,0.3874512802485697,0,0,4.738909280551525
8,23,female,23,15,65,left,change,valid,clock,1,1.129288236184948,0,f,0,same,0.9477784563114255,0.1723802682263526,0,0,0,0.3874920136822766,0,0,5.049852910611662
8,23,female,24,75,75,left,same,valid,anti,1,0.865455547314923,0,f,1,same,1.1220707209376997,0.17436152827710327,0,0,0,0.38744390332794865,0,0,4.79469965026874
8,23,female,25,135,135,left,same,valid,clock,1,1.1214295702902746,0,f,1,same,1.624579194773105,0.17623386780677885,0,0,0,0.3874855989670323,0,0,6.003427381590882
8,23,female,26,135,45,left,change,catch,clock,1,0.897466572925623,0,f,0,same,0.8255672531413438,0,0,0,0,0.3875292190223263,0,0,6.6731841228120174
8,23,female,27,105,105,left,same,valid,anti,3,0.8003635218319687,1,f,1,same,0.47137113224925997,0.178231557257571,0,0,0,0.3874378093496489,0,0,4.631134070084954
8,23,female,28,45,45,left,same,valid,clock,1,0.33746558506027213,0,j,0,change,1.5418694785348634,0.1775425260979202,0,0,0,0.3875080504658399,0,0,4.748388944624821
8,23,female,29,75,75,right,same,valid,clock,3,0.8094031365399132,1,f,1,same,0.6832789579420933,0.17955567863858068,0,0,0,0.387501315017289,0,0,4.140849154156967
8,23,female,30,165,165,right,same,valid,clock,3,1.3294045349466614,1,f,1,same,0.6710194776369462,0.17884118451199615,0,0,0,0.38757893305410107,0,0,4.981588488410125
8,23,female,31,45,355,right,change,valid,anti,2,1.0174409653882321,1,f,0,same,0.6566562919360877,0.17815200108547868,0,0,0,0.3874378093478299,0,0,4.803305309587813
8,23,female,32,45,355,left,change,valid,anti,2,0.9614543054285605,1,j,1,change,0.9672423017018446,0.17748411160601008,0,0,0,0.38742497992279823,0,0,4.909965001321325
8,23,female,33,15,15,left,same,valid,clock,4,1.073483754094923,1,f,1,same,0.4765462026171008,0.17683375606010382,0,0,0,0.3874817501382495,0,0,4.5294265374141105
8,23,female,34,75,125,right,change,valid,clock,3,4.43334470875925,1,j,1,change,1.3706848220172105,0.17619738855175543,0,0,0,0.38748591970215784,0,0,8.821045200638764
8,23,female,35,165,165,left,same,valid,clock,2,1.0734690002536809,1,f,1,same,0.5769675851679494,0.17557163854939106,0,0,0,0.3875365959429473,0,0,4.357841923489104
8,23,female,36,165,165,right,same,valid,anti,4,0.7214179596594477,1,f,1,same,0.8347560099446127,0.1749532753301788,0,0,0,0.38751606885853107,0,0,4.76426439910756
8,23,female,37,105,15,right,change,catch,anti,4,0.9293627751594613,1,f,0,same,0.696066689930376,0,0,0,0,0.3874435825928231,0,0,5.986553156166337
8,23,female,38,75,25,left,change,valid,anti,2,0.536302148415416,1,j,1,change,0.564456968817467,0.17429635242709057,0,0,0,0.38739643444569083,0,0,4.4373080396890145
8,23,female,39,165,115,left,change,valid,anti,2,0.6574132281657512,1,j,1,change,0.6824290083623055,0.1736399786578664,0,0,0,0.38745929864126083,0,0,4.317430830140438
8,23,female,40,135,185,right,change,valid,clock,1,0.9854648999680649,0,f,0,same,0.7403327055471891,0.17298047771691738,0,0,0,0.3874605815835821,0,0,4.586832452807357
8,23,female,41,75,85,left,change,catch,anti,2,0.8974534227636468,1,f,0,same,0.4446471137634944,0,0,0,0,0.3875404447699111,0,0,5.65893576048984
8,23,female,42,45,105,left,same,catch,anti,2,0.6562069412320852,1,f,1,same,0.4952829401972849,0,0,0,0,0.3874823916103196,0,0,5.7998910781607265
8,23,female,43,135,15,right,change,catch,clock,1,0.576440616428954,0,j,1,change,1.1277249704289716,0,0,0,0,0.3875786123171565,0,0,6.564092292337591
8,23,female,44,15,325,right,change,valid,anti,3,0.8002169456212869,1,j,1,change,0.6515097670435352,0.17471331268324725,0,0,0,0.3874025284239906,0,0,4.9368946113845595
8,23,female,45,135,135,left,same,valid,anti,2,0.5774554241543228,1,f,1,same,1.2577342204440356,0.17407431770406506,0,0,0,0.38746090232052666,0,0,4.749826161256351
8,23,female,46,105,105,right,same,valid,anti,3,1.8254719946417026,1,f,1,same,0.5592748422623117,0.1734346330815561,0,0,0,0.38750195648754016,0,0,5.662368915322077
8,23,female,47,45,355,right,same,catch,clock,1,1.0014773085913475,0,j,0,change,0.5333751145026326,0,0,0,0,0.3875006735452189,0,0,5.690344444474249
8,23,female,48,75,125,left,change,valid,clock,1,0.8163749682480557,0,j,1,change,1.4276644796755136,0.17279077043579166,0,0,0,0.3874807879310538,0,0,5.1349870679368905
8,23,female,49,165,215,right,change,valid,clock,2,0.8811799352879461,1,j,1,change,0.49711177510653215,0.17448521017850716,0,0,0,0.38749522103898926,0,0,4.649244410860774
8,23,female,50,75,25,right,change,valid,anti,2,1.049417351543525,1,f,0,same,0.7065627654083073,0.1738628194155269,0,0,0,0.3874987491308275,0,0,4.60603169125352
8,23,female,51,165,45,right,change,catch,clock,2,1.7694237534287822,1,f,0,same,0.931101804075297,0,0,0,0,0.38749169294533203,0,0,7.311828539830458
8,23,female,52,135,85,left,change,valid,anti,3,1.6484069699708925,1,j,1,change,0.5449578424995707,0.173238613046025,0,0,0,0.3875369166780729,0,0,5.630034267402152
8,23,female,53,105,155,left,change,valid,clock,3,0.7293760536158516,1,f,0,same,0.8239574807121244,0.17260927287421723,0,0,0,0.38751735180085234,0,0,4.236803971478366
8,23,female,54,15,15,right,same,valid,anti,2,0.6894823069360427,1,f,1,same,0.873500881381915,0.17197146513379863,0,0,0,0.3873826428098255,0,0,4.448202148159908
8,23,female,55,15,325,left,change,valid,anti,1,1.4574236200023734,0,j,1,change,0.6507489819850889,0.1713218075482456,0,0,0,0.38746186452590337,0,0,5.321169004615513
8,23,female,56,15,155,left,same,catch,anti,4,5.849382840384351,1,f,1,same,0.7145808369405131,0,0,0,0,0.3875321056420944,0,0,10.99360613400495
8,23,female,57,45,185,right,change,catch,anti,2,0.4702896114995383,1,f,0,same,0.9886312027065287,0,0,0,0,0.3874262628651195,0,0,6.454618465651947
8,23,female,58,165,115,right,change,valid,anti,1,0.2803762357943924,0,j,1,change,1.0923394846158772,0.17305119288623072,0,0,0,0.3874795049887325,0,0,4.89273860810863
8,23,female,1,135,135,left,same,valid,anti,4,1.1199535446430673,1,f,1,same,0.3489995612344501,0.17465279281277524,0,0,0,0.38744486553514434,0,0,4.176843075572833
8,23,female,2,15,15,right,same,valid,clock,2,0.529472723354047,1,j,0,change,0.4645686489857326,0.1740608652293857,0,0,0,0.38745705349174386,0,0,4.228484729132106
8,23,female,3,165,115,right,change,valid,anti,3,1.1374977869236318,1,j,1,change,0.3914755509595125,0.17346817949207038,0,0,0,0.38760106381596415,0,0,4.479867420694063
8,23,female,4,135,15,right,change,catch,clock,2,0.5214315588527825,1,j,1,change,0.6180413184556528,0,0,0,0,0.3874301116920833,0,0,5.83085810909688
8,23,female,5,105,55,right,change,valid,anti,3,0.8478596665881923,1,j,1,change,1.12440311087812,0.17287171619790853,0,0,0,0.38748463676165557,0,0,5.2133402312883845
8,23,female,6,105,155,right,change,valid,clock,1,0.6574623007272749,0,j,1,change,0.774107777455356,0.17226845226372506,0,0,0,0.38743235684341926,0,0,4.729911682219608
8,23,female,7,135,135,left,same,valid,clock,1,0.5854090278116928,0,j,0,change,0.6219658403661015,0.17386298810019407,0,0,0,0.38753916182758985,0,0,4.257663337857593
8,23,female,8,15,65,left,change,valid,clock,2,0.5134535792803945,1,j,1,change,1.2486750408625085,0.17536978472086256,0,0,0,0.38744197891355725,0,0,4.813672128580947
8,23,female,9,15,155,left,same,catch,anti,2,0.553452527268746,1,j,0,change,0.7402393714619393,0,0,0,0,0.3874750146896986,0,0,5.924233890729738
8,23,female,10,105,105,right,same,valid,anti,2,1.0236715769151488,1,f,1,same,0.6756637304388278,0.1748391418280582,0,0,0,0.3874634682051692,0,0,4.918251849361695
8,23,female,11,45,355,right,same,catch,clock,2,1.2014749351474165,1,j,0,change,0.6862419142526051,0,0,0,0,0.3874567327547993,0,0,6.688770594437301
8,23,female,12,105,55,left,change,valid,anti,2,0.7443367699106602,1,j,1,change,0.5137566745088407,0.17427481345084894,0,0,0,0.3874394130289147,0,0,4.236998978778502
8,23,female,13,105,105,left,same,valid,anti,2,0.7294716328524373,1,j,0,change,0.5942055248633551,0.17371076623844317,0,0,0,0.38743428125781065,0,0,4.047873329929644
8,23,female,14,165,165,right,same,valid,anti,1,0.2814795665708516,0,j,0,change,0.7626453253415093,0.1731442382184637,0,0,0,0.387474693954573,0,0,4.118330942783359
8,23,female,15,75,125,right,change,valid,clock,2,1.0255081094819616,1,f,0,same,1.127147004714061,0.17463122022249128,0,0,0,0.3874663548267563,0,0,5.317698002971156
8,23,female,16,165,215,left,change,valid,clock,2,0.96944447295391,1,f,0,same,0.6106300788487715,0.17408028678887866,0,0,0,0.38742850801463646,0,0,4.918101103587105
8,23,female,17,165,45,right,change,catch,clock,1,2.2734323080912873,0,j,1,change,0.672495182550847,0,0,0,0,0.3874580156971206,0,0,7.094183073366366
8,23,female,18,165,165,right,same,valid,clock,2,0.6803926574630168,1,f,1,same,0.7313495403213892,0.17352866941685513,0,0,0,0.3874403752361104,0,0,4.591240323405145
8,23,female,19,135,135,right,same,valid,anti,3,0.7054873386387044,1,f,1,same,0.9716623602562322,0.17297372899235053,0,0,0,0.38744294112075295,0,0,4.547934590445948
8,23,female,20,15,15,left,same,valid,clock,2,0.7454221394873457,1,j,0,change,0.7515597376641381,0.17241282468968633,0,0,0,0.3874698829185945,0,0,4.591050768609421
8,23,female,21,105,105,right,same,valid,clock,2,0.8653737597142026,1,f,1,same,1.6797367529743497,0.17184329058808429,0,0,0,0.3875051638442528,0,0,5.539360363225569
8,23,female,22,75,75,right,same,valid,clock,2,0.48147206135399756,1,f,1,same,0.844190771022113,0.1712624123234603,0,0,0,0.38753723741319845,0,0,4.5121193188078905
8,23,female,23,135,45,left,change,catch,clock,2,0.8494457045799209,1,f,0,same,0.5591279453146853,0,0,0,0,0.3874708451257902,0,0,6.033626892020038
8,23,female,24,105,105,left,same,valid,clock,2,0.6716487610628974,1,f,1,same,0.6804112601312227,0.1706674034680496,0,0,0,0.38742305550658784,0,0,4.739607522149527
8,23,female,25,15,325,right,change,valid,anti,1,2.721450353963519,0,j,1,change,0.7444634605071769,0.1700553813320902,0,0,0,0.3875519912544405,0,0,6.403792763689125
8,23,female,26,45,45,right,same,valid,clock,1,0.6893745397446764,0,j,0,change,0.7257741918092506,0.17169912097769663,0,0,0,0.3875093334081612,0,0,4.43885174056777
8,23,female,27,45,105,left,same,catch,anti,2,0.833357281597273,1,f,1,same,0.7829587995747715,0,0,0,0,0.387457694963814,0,0,6.1426648389006
8,23,female,28,15,15,left,same,valid,anti,2,0.7599687860019912,1,f,1,same,0.7385548676138569,0.1731861548972614,0,0,0,0.3874910514732619,0,0,4.691275540182687
8,23,female,29,135,185,right,change,valid,clock,3,0.8654151346181607,1,j,1,change,0.5635258731072099,0.17265212279269376,0,0,0,0.3874137541733944,0,0,4.418077048410851
8,23,female,30,45,45,left,same,valid,anti,2,0.649414721510766,1,f,1,same,1.9078738046173385,0.17211083963783225,0,0,0,0.38746603408981173,0,0,5.441570296283317
8,23,female,31,75,75,right,same,valid,anti,2,0.6334654978199978,1,f,1,same,0.7481506380063365,0.17155982919807478,0,0,0,0.38741247122925415,0,0,4.204205999552869
8,23,female,32,45,185,right,change,catch,anti,1,1.0654810778778483,0,j,1,change,0.54438661223503,0,0,0,0,0.387440695971236,0,0,6.126843588750489
8,23,female,33,165,115,left,change,valid,anti,3,0.8794960729119339,1,j,1,change,0.4802256824605138,0.17099655832400046,0,0,0,0.38740284915911616,0,0,4.626529267772639
8,23,female,34,75,25,left,change,valid,anti,3,0.769458713619315,1,j,1,change,0.5362771310319658,0.17041841586230766,0,0,0,0.38749169294533203,0,0,4.055398430704372
8,23,female,35,45,45,right,same,valid,anti,2,0.8974479702574172,1,f,1,same,0.8127480890580046,0.1698180997160022,0,0,0,0.38755455714090203,0,0,4.678514749992246
8,23,female,36,165,165,left,same,valid,clock,1,1.3774363083048229,0,j,0,change,1.0154482345424185,0.1692162041356789,0,0,0,0.3874766183689644,0,0,5.389107238619545
8,23,female,37,135,185,left,change,valid,clock,4,0.8974617618914635,1,j,1,change,0.5053630214842997,0.17086978651208146,0,0,0,0.387448072891857,0,0,4.830280464117095
8,23,female,38,75,125,left,change,valid,clock,3,0.6094035855694528,1,j,1,change,0.7198162056192814,0.17029929006541522,0,0,0,0.387448072891857,0,0,3.9768127339775674
8,23,female,39,45,355,right,change,valid,anti,1,1.6734384662158845,0,j,1,change,0.6199474506647675,0.16970578802487862,0,0,0,0.3873643608767452,0,0,5.293110084186992
8,23,female,40,75,75,left,same,valid,anti,3,1.0415256498745293,1,f,1,same,0.3929637645633193,0.1712945771408017,0,0,0,0.38745929863944184,0,0,4.315430080901933
8,23,female,41,45,95,right,change,valid,clock,1,4.049485988982269,0,j,1,change,1.008132574172123,0.1707467546443306,0,0,0,0.3874644304123649,0,0,8.224630769072974
8,23,female,42,45,355,left,change,valid,anti,3,0.6814514059769863,1,j,1,change,0.5546023647202674,0.17221179290600974,0,0,0,0.3874233762435324,0,0,4.218564053484442
8,23,female,43,105,155,left,change,valid,clock,2,0.7934580824112345,1,j,1,change,0.4616752923193417,0.17169545300228167,0,0,0,0.3874159993229114,0,0,4.333197234489489
8,23,female,44,105,15,right,change,catch,anti,2,0.6495103007473517,1,f,0,same,1.002529321658585,0,0,0,0,0.3874795049887325,0,0,5.877333672884561
8,23,female,45,75,75,left,same,valid,clock,3,0.8563954055243812,1,f,1,same,0.5504270274977898,0.17116803088729426,0,0,0,0.38745320466296107,0,0,5.024192130942538
8,23,female,46,135,85,left,change,valid,anti,1,0.913461020350951,0,j,1,change,0.6793255698175926,0.17062721677383835,0,0,0,0.38745737422686943,0,0,4.5274177697829145
8,23,female,47,75,25,right,change,valid,anti,3,0.5454562657650968,1,j,1,change,0.7267072119338991,0.17207476149380369,0,0,0,0.38742497992279823,0,0,4.242373546747331
8,23,female,48,165,215,right,change,valid,clock,4,0.9294618824878853,1,j,1,change,0.5076152275050845,0.17156570871149313,0,0,0,0.38744871436210815,0,0,4.550043106877638
8,23,female,49,165,165,left,same,valid,anti,4,0.7455190016662527,1,f,1,same,0.8933387045872223,0.17104518547654113,0,0,0,0.3874570534899249,0,0,4.409188820951385
8,23,female,50,45,45,left,same,valid,clock,4,0.8814718047669885,1,f,1,same,0.5184711684287322,0.1705109458702569,0,0,0,0.38748976853094064,0,0,4.504769660456077
8,23,female,51,75,85,left,change,catch,anti,2,0.6574578104282409,1,f,0,same,0.8183593599660526,0,0,0,0,0.38754204844917695,0,0,5.815424307660578
8,23,female,52,135,135,right,same,valid,clock,2,0.7999664510462026,1,f,1,same,0.8326093259674963,0.1699593773281075,0,0,0,0.3874814294031239,0,0,4.654431348450089
8,23,female,53,15,325,left,change,valid,anti,2,0.753382157858141,1,j,1,change,0.43309998742734024,0.16939538069638355,0,0,0,0.3874968247164361,0,0,4.244269094679112
8,23,female,54,15,15,right,same,valid,anti,1,1.3134302938724431,0,j,0,change,1.3174834307938,0.16885314574385868,0,0,0,0.3875308226997731,0,0,5.295806188403731
8,23,female,55,15,65,right,change,valid,clock,2,0.8574618516959163,1,f,0,same,0.7397858511940285,0.1703977320503034,0,0,0,0.38754589727614075,0,0,5.038199300026463
8,23,female,56,45,95,left,change,valid,clock,2,1.1774717175267142,1,j,1,change,0.45908438940932683,0.1698497762676356,0,0,0,0.38754685948333645,0,0,4.454252185494624
8,23,female,57,105,125,left,change,catch,clock,1,2.5294544414191478,0,j,1,change,0.6870100762316724,0,0,0,0,0.3875074089937698,0,0,7.764453312431215
8,23,female,58,135,85,right,change,valid,anti,2,0.5923375602014858,1,j,1,change,0.47338535238668555,0.16929991898082858,0,0,0,0.3874862404391024,0,0,4.116640986429047
8,23,female,1,45,105,left,same,catch,anti,1,0.7945424897807243,0,j,0,change,0.9848907830819371,0,0,0,0,0.3874641096772393,0,0,6.522612186929109
8,23,female,2,105,105,right,same,valid,anti,2,0.8081407208610472,1,f,1,same,0.4960264055280277,0.16877096047996493,0,0,0,0.3874483936269826,0,0,4.801540942551583
8,23,female,3,45,45,right,same,valid,anti,1,0.41749330945276597,0,j,0,change,0.3920717986093223,0.16826043747084002,0,0,0,0.387513182236944,0,0,3.595244708503742
8,23,female,4,75,75,left,same,valid,anti,4,0.6334488195643644,1,f,1,same,0.4643104567530827,0.16974442942458035,0,0,0,0.3874679585060221,0,0,4.069819990299948
8,23,female,5,45,45,left,same,valid,anti,2,0.521462990949658,1,f,1,same,0.42509346237966383,0.16920808875370708,0,0,0,0.38748303308057075,0,0,3.7570071126338007
8,23,female,6,135,85,right,change,valid,anti,4,0.5774858940440026,1,j,1,change,1.010661254358638,0.16869183340553706,0,0,0,0.38748784411654924,0,0,4.676180435635615
8,23,female,7,75,75,right,same,valid,clock,2,0.961512358588152,1,f,1,same,0.39492089374834904,0.16819330932526927,0,0,0,0.387484316024711,0,0,4.498685945874968
8,23,female,8,105,15,right,change,catch,anti,2,0.9054522501519386,1,j,1,change,0.8853437260240753,0,0,0,0,0.38746282673309906,0,0,6.048981151005137
8,23,female,9,15,65,right,change,valid,clock,1,0.552388326246728,0,j,1,change,0.8608895540237427,0.1677103158142585,0,0,0,0.38744390332794865,0,0,4.814355616337707
8,23,female,10,135,85,left,change,valid,anti,2,0.6654855040287657,1,j,1,change,0.4725341198627575,0.16911969060588605,0,0,0,0.38745256319089094,0,0,4.128256750202127
8,23,female,11,165,115,right,change,valid,anti,4,0.6974545132634375,1,f,0,same,1.162233244125673,0.1686156004507125,0,0,0,0.3874339605208661,0,0,4.904441932727423
8,23,female,12,165,215,right,change,valid,clock,3,0.5453308581090823,1,j,1,change,1.1990636442242248,0.16812857628398858,0,0,0,0.3874557705494226,0,0,4.876961940221008
8,23,female,13,135,15,right,change,catch,clock,2,1.0814405651108245,1,j,1,change,1.0806079352569213,0,0,0,0,0.3874653926195606,0,0,6.9227248293045704
8,23,female,14,105,155,right,change,valid,clock,2,0.6242475540693704,1,j,1,change,0.8468005973372783,0.16765651113538116,0,0,0,0.3874833538175153,0,0,4.2645200254537485
8,23,female,15,165,165,left,same,valid,anti,4,0.5534865252520831,1,j,0,change,0.4421347910974873,0.16719742464048803,0,0,0,0.3874493558341783,0,0,4.228498520767971
8,23,female,16,75,75,left,same,valid,clock,3,0.769526709585989,1,f,1,same,0.714534330265451,0.16674944656952861,0,0,0,0.3874204896219453,0,0,4.383274339348645
8,23,female,17,45,355,left,change,valid,anti,1,0.42539335025139735,0,j,1,change,3.0971149183151283,0.1663108017587307,0,0,0,0.38744197891355725,0,0,6.326821329692393
8,23,female,18,165,165,right,same,valid,anti,4,0.9054458354403323,1,f,1,same,0.7626337788569799,0.16760453980848783,0,0,0,0.38749457956691913,0,0,4.935379776718037
8,23,female,19,165,115,left,change,valid,anti,4,0.7934705911029596,1,j,1,change,0.5283325079744827,0.16715548303771116,0,0,0,0.3874641096772393,0,0,4.189016598713351
8,23,female,20,75,125,right,change,valid,clock,4,0.9374645587049599,1,j,1,change,0.6497280802814203,0.1667171500022217,0,0,0,0.3874862404391024,0,0,4.49485604099209
8,23,female,21,45,355,right,change,valid,anti,1,0.6334683844415849,0,j,1,change,0.8227380436146632,0.16628783575372486,0,0,0,0.3874403752342914,0,0,4.072978595382665
8,23,female,22,105,105,left,same,valid,anti,2,0.6094472056229279,1,f,1,same,0.6984475109620689,0.16755431227170337,0,0,0,0.3875074089937698,0,0,4.392052554467227
8,23,female,23,75,85,left,change,catch,anti,1,0.44140575887286104,0,j,1,change,0.4124587213173072,0,0,0,0,0.38743716787757876,0,0,5.487475912750597
8,23,female,24,75,75,right,same,valid,anti,3,1.088368776765492,1,f,1,same,0.5229845610665507,0.16711489557606402,0,0,0,0.3875051638460718,0,0,4.7459311470265675
8,23,female,25,165,215,left,change,valid,clock,1,0.6814456327338121,0,j,1,change,0.552978479918238,0.16668583723268754,0,0,0,0.38748495749496215,0,0,4.274874015020032
8,23,female,26,45,45,right,same,valid,clock,2,0.7854900456459291,1,f,1,same,0.7250595926907408,0.16794755709643777,0,0,0,0.38743331905061495,0,0,4.535144934045093
8,23,female,27,15,325,left,change,valid,anti,3,0.8894622930292826,1,j,1,change,0.4749245629664074,0.1675057444863282,0,0,0,0.387503560166806,0,0,4.273957673152836
8,23,female,28,15,15,left,same,valid,clock,1,0.5535076938067505,0,j,0,change,1.0810043645706173,0.16707560018132656,0,0,0,0.3874483936269826,0,0,4.4943550518437405
8,23,female,29,135,135,left,same,valid,clock,2,0.8974736291111185,1,f,1,same,1.1120993690492469,0.1683367033191438,0,0,0,0.3875195969521883,0,0,5.344471094016626
8,23,female,30,105,125,left,change,catch,clock,2,0.8813941867301764,1,f,0,same,1.8522550284942554,0,0,0,0,0.38741888594449847,0,0,7.5933036161040945
8,23,female,31,165,165,left,same,valid,clock,2,0.9204164945385855,1,f,1,same,0.5583719712940365,0.16789125155748896,0,0,0,0.3875346715285559,0,0,5.02553793790139
8,23,female,32,75,125,left,change,valid,clock,1,0.4414699060125713,0,j,1,change,0.33212341139551427,0.16745875753732303,0,0,0,0.38743075316415343,0,0,3.4568405225163588
8,23,female,33,15,325,right,change,valid,anti,4,0.769456468469798,1,j,1,change,0.5762738338689815,0.16872312038414283,0,0,0,0.38748463676165557,0,0,4.232047461184266
8,23,female,34,105,105,left,same,valid,clock,3,0.802789887333347,1,j,0,change,1.9939194927756034,0.168272843030203,0,0,0,0.3874512802485697,0,0,5.747185223579436
8,23,female,35,45,185,right,change,catch,anti,2,0.865479923229941,1,f,0,same,0.7005951571482001,0,0,0,0,0.38746026084663754,0,0,5.986658678210006
8,23,female,36,15,15,left,same,valid,anti,4,1.1842379576573876,1,j,0,change,0.6730895057862654,0.16783680043614285,0,0,0,0.38751157855949714,0,0,5.173487859512534
8,23,female,37,165,45,right,change,catch,clock,3,0.9534436108169757,1,f,0,same,1.6050412594395311,0,0,0,0,0.38745224245576537,0,0,7.296430340056759
8,23,female,38,135,135,left,same,valid,anti,1,0.4003413269219891,0,j,0,change,0.5765823816036573,0.16741327726557392,0,0,0,0.3874750146896986,0,0,4.394581234651923
8,23,female,39,15,15,right,same,valid,clock,2,6.3294119118672825,1,f,1,same,1.3679300231706293,0.16865183574513504,0,0,0,0.3874368471424532,0,0,10.816858637668702
8,23,female,40,45,95,left,change,valid,clock,3,1.2494855399509106,1,f,0,same,0.6745151759296277,0.16821109917650423,0,0,0,0.38743909229197016,0,0,4.789257727807126
8,23,female,41,45,95,right,change,valid,clock,3,1.1934562221431406,1,j,1,change,0.4790575630759122,0.16778411519185776,0,0,0,0.38743620567220205,0,0,4.8307246830499935
8,23,female,42,135,135,right,same,valid,clock,4,0.7934856656811462,1,f,1,same,0.6072809567667719,0.1673692339293828,0,0,0,0.387556802290419,0,0,4.473264435031524
8,23,female,43,135,135,right,same,valid,anti,2,0.9374388998512586,1,f,1,same,0.46501671674559475,0.16696489717704066,0,0,0,0.3874679585042031,0,0,4.354494725821496
8,23,female,44,45,45,left,same,valid,clock,4,0.40946016334419255,1,f,1,same,1.1047833879438258,0.16656962688127525,0,0,0,0.3874833538175153,0,0,4.416540403715771
8,23,female,45,75,25,left,change,valid,anti,2,0.8334628036409413,1,j,1,change,0.43958237647166243,0.16618201457013732,0,0,0,0.3874483936269826,0,0,4.376328807966274
8,23,female,46,75,25,right,change,valid,anti,3,1.1294643200781138,1,j,1,change,0.677625670659836,0.16580071157020765,0,0,0,0.3874929758876533,0,0,4.735419996972269
8,23,female,47,165,165,right,same,valid,clock,1,0.4971797710713872,0,j,0,change,0.5839730941243033,0.16542441990880613,0,0,0,0.38752184210170526,0,0,4.135350461474445
8,23,female,48,15,65,left,change,valid,clock,2,0.7934567994689132,1,f,0,same,0.5542161989469605,0.16654265187164846,0,0,0,0.38737334147663205,0,0,4.472331414906876
8,23,female,49,135,185,left,change,valid,clock,1,1.273343785042016,0,j,1,change,0.6680703129604808,0.1661625096712711,0,0,0,0.387566424362376,0,0,4.9134369651728775
8,23,female,50,135,45,left,change,catch,clock,2,0.5454809624116024,1,f,0,same,0.46853518727220944,0,0,0,0,0.3875138237090141,0,0,5.425307393086769
8,23,female,51,45,355,right,same,catch,clock,2,1.1760139738125872,1,j,0,change,1.0202496478323155,0,0,0,0,0.3875311434348987,0,0,6.985424166536177
8,23,female,52,135,185,right,change,valid,clock,3,0.928350533320554,1,j,1,change,0.538207318419154,0.16728519933854585,0,0,0,0.3875195969503693,0,0,4.649441984045552
8,23,female,53,105,55,right,change,valid,anti,2,1.5134506926606264,1,f,0,same,0.7795487377134123,0.16689656605238595,0,0,0,0.3874464692125912,0,0,5.223500817235617
8,23,female,54,105,55,left,change,valid,anti,1,0.5853865763128852,0,j,1,change,2.1054476315584907,0.16651644102737861,0,0,0,0.3875407655068557,0,0,5.63641754911805
8,23,female,55,15,155,left,same,catch,anti,3,1.4174952338689764,1,f,1,same,0.7333220648197312,0,0,0,0,0.3874147163787711,0,0,6.517093929371185
8,23,female,56,15,15,right,same,valid,anti,4,1.000394184164179,1,f,1,same,0.9732487189812673,0.1676358481959565,0,0,0,0.38749265515252773,0,0,5.322099779588825
8,23,female,57,105,105,right,same,valid,clock,3,1.2414770904906618,1,f,1,same,0.6365759925502061,0.16724508800357946,0,0,0,0.3875234457791521,0,0,5.031919295202897
8,23,female,58,105,155,left,change,valid,clock,2,0.713400529599312,1,f,0,same,1.0808998047359637,0.166863901832206,0,0,0,0.3874795049887325,0,0,4.727814712274267
8,23,female,1,45,355,left,change,valid,anti,4,0.9442234219150123,1,j,1,change,0.4288733324956411,0.16649096375742817,0,0,0,0.38741984815169417,0,0,4.401367039661636
8,23,female,2,165,45,right,change,catch,clock,2,0.5372444698750769,1,j,1,change,0.6845375247921766,0,0,0,0,0.38750195648754016,0,0,5.5964676736912224
8,23,female,3,165,165,right,same,valid,anti,2,0.6003578768832085,1,f,1,same,0.5793577075346548,0.1661250080215786,0,0,0,0.3874958625092404,0,0,4.306070692713547
8,23,female,4,75,85,left,change,catch,anti,2,0.5134907846222632,1,j,1,change,0.5336118174418516,0,0,0,0,0.3874929758876533,0,0,5.690295692647851
8,23,female,5,105,125,left,change,catch,clock,2,0.5441948122934264,1,f,0,same,0.613792212023327,0,0,0,0,0.3874625059979735,0,0,5.971121279146246
8,23,female,6,165,115,right,change,valid,anti,1,0.8963228294524015,0,j,1,change,0.5352918309909,0.16576482070835968,0,0,0,0.38749618324436597,0,0,4.479333716504698
8,23,female,7,75,75,right,same,valid,clock,2,0.7454263090494351,1,f,1,same,0.705422550028743,0.16683218216202272,0,0,0,0.3875061260514485,0,0,4.400759886999367
8,23,female,8,105,105,left,same,valid,clock,4,0.7854230118882697,1,j,0,change,0.7179405433016655,0.16646619096103799,0,0,0,0.38752665313586476,0,0,4.472204403573414
8,23,female,9,75,75,left,same,valid,clock,4,0.7694567892031046,1,f,1,same,0.5636554503253137,0.16610697641998096,0,0,0,0.3874099053446116,0,0,4.441239297049833
8,23,female,10,135,45,left,change,catch,clock,4,0.9454495944610244,1,f,0,same,0.476875918908263,0,0,0,0,0.3875388410924643,0,0,5.721393263011123
8,23,female,11,45,95,right,change,valid,clock,3,1.3121528036153904,1,f,0,same,0.7280619994908193,0.16575336512628547,0,0,0,0.3875006735452189,0,0,5.290952495195597
8,23,female,12,75,125,left,change,valid,clock,3,0.7294418044330087,1,j,1,change,0.4825442807705258,0.16540422579491587,0,0,0,0.3874833538175153,0,0,4.009375104238643
8,23,female,13,45,355,right,same,catch,clock,2,0.5454787172620854,1,j,0,change,0.6128097986038483,0,0,0,0,0.38748175014006847,0,0,5.331535182138396
8,23,female,14,135,15,right,change,catch,clock,1,0.44031076722603757,0,j,1,change,1.39901893366914,0,0,0,0,0.38746475114749046,0,0,6.642285729314608
8,23,female,15,135,85,left,change,valid,anti,1,0.6404305940795894,0,j,1,change,0.38014812857181823,0.16505846235272154,0,0,0,0.3874631474700436,0,0,4.44703306656811
8,23,female,16,15,155,left,same,catch,anti,2,0.4495001654995576,1,f,1,same,1.0214094280909194,0,0,0,0,0.3874233762435324,0,0,5.799047543292545
8,23,female,17,165,215,left,change,valid,clock,2,0.896153801744731,1,j,1,change,1.1395681358080765,0.16608940213872458,0,0,0,0.38746186452772235,0,0,5.3470097170084046
8,23,female,18,165,165,left,same,valid,clock,1,0.6093913976128533,0,f,1,same,3.2081225030724454,0.16574215428645717,0,0,0,0.3874708451257902,0,0,6.9701674112020555
8,23,female,19,105,105,right,same,valid,clock,3,1.0894140543823596,1,f,1,same,0.6618608699900506,0.1667714207860111,0,0,0,0.3874528839260165,0,0,4.876061955870682
8,23,female,20,165,165,right,same,valid,clock,3,1.1214363057406445,1,f,1,same,0.5785982054203487,0.16641864936924655,0,0,0,0.3875122200297483,0,0,4.823333329055458
8,23,female,21,165,115,left,change,valid,anti,2,1.3614777832808613,1,f,0,same,0.841277528745195,0.16607226934097497,0,0,0,0.38743620567038306,0,0,5.394171013704181
8,23,female,22,15,15,left,same,valid,clock,2,0.8574037985381437,1,j,0,change,0.9713294366083574,0.16573118250162416,0,0,0,0.38747341101043276,0,0,4.931182308731877
8,23,female,23,45,45,left,same,valid,clock,1,0.8253465869875072,0,j,0,change,1.4000177046109457,0.1653943292002012,0,0,0,0.38743716787939775,0,0,5.104226270048457
8,23,female,24,45,95,left,change,valid,clock,3,0.9934496149890037,1,f,0,same,0.5869543323697144,0.16639582913406564,0,0,0,0.38748110866799834,0,0,4.761641101895293
8,23,female,25,135,135,right,same,valid,clock,4,1.241439243678542,1,f,1,same,0.9583871100185206,0.16605556279865702,0,0,0,0.3874204896219453,0,0,4.914245539848707
8,23,female,26,45,185,right,change,catch,anti,1,1.0334344506063644,0,j,1,change,0.6947917655597848,0,0,0,0,0.38748848558861937,0,0,6.267512168713438
8,23,female,27,75,25,right,change,valid,anti,1,1.1762792222289136,0,j,1,change,2.8613186983766354,0.16572044406008768,0,0,0,0.3874926551543467,0,0,7.366488636975191
8,23,female,28,75,75,left,same,valid,anti,4,0.92143899992152,1,f,1,same,0.40506448070300394,0.1667139906230109,0,0,0,0.3873957929736207,0,0,4.545978423469933
8,23,female,29,105,55,left,change,valid,anti,3,1.1934164509202674,1,f,0,same,0.7001130914050009,0.1663736103534853,0,0,0,0.3874977869236318,0,0,4.541612889981479
8,23,female,30,105,55,right,change,valid,anti,1,0.29750384241197025,0,j,1,change,0.4804062566563516,0.1660392678748464,0,0,0,0.3874708451257902,0,0,3.8083152010749473
8,23,female,31,45,45,left,same,valid,anti,4,0.8894876311478583,1,f,1,same,0.32861456293903757,0.16702782305398323,0,0,0,0.3873823220746999,0,0,4.12095391926232
8,23,female,32,135,185,left,change,valid,clock,2,0.6014531892669766,1,f,0,same,0.9033876745124871,0.16668644185301512,0,0,0,0.38742401771378354,0,0,4.449219842505045
8,23,female,33,45,105,left,same,catch,anti,3,1.5934014404883783,1,f,1,same,0.6384933505069057,0,0,0,0,0.3875022772244847,0,0,6.954004256804183
8,23,female,34,105,15,right,change,catch,anti,1,0.30392015990582877,0,j,1,change,0.5942295800414286,0,0,0,0,0.38748399528776645,0,0,5.893337421643082
8,23,female,35,75,125,right,change,valid,clock,2,0.6243607737687853,1,j,1,change,0.5402520084462594,0.16635197027021115,0,0,0,0.3874403752342914,0,0,4.392616087076021
8,23,female,36,15,15,right,same,valid,clock,1,0.625442294516688,0,j,0,change,0.7182195833520382,0.16602337050511312,0,0,0,0.3874329983136704,0,0,4.447358613291726
8,23,female,37,165,165,left,same,valid,anti,2,0.929390358429373,1,f,1,same,0.813871946917061,0.16699509070024487,0,0,0,0.38738681237555284,0,0,4.784533611817096
8,23,female,38,15,15,right,same,valid,anti,2,0.7374031057479442,1,f,1,same,0.6023326465310674,0.16665962977402266,0,0,0,0.3875282568133116,0,0,4.377726574108237
8,23,female,39,75,75,right,same,valid,anti,1,0.6494660392218066,0,f,1,same,0.388610739770229,0.16633088719876404,0,0,0,0.38741343343644985,0,0,3.9603545027439395
8,23,female,40,135,135,left,same,valid,clock,2,0.6894159146486345,1,f,1,same,1.1632368261016381,0.1673005180310414,0,0,0,0.38748495749678113,0,0,4.556406502979371
8,23,female,41,105,105,left,same,valid,anti,2,1.0014394617792277,1,f,1,same,0.6305711789464112,0.16696324576214056,0,0,0,0.3874827123454452,0,0,4.943855858815368
8,23,female,42,15,65,left,change,valid,clock,2,0.48949943422303477,1,f,0,same,1.0061671058610955,0.16663352567124107,0,0,0,0.3874493558341783,0,0,4.6541940040388
8,23,female,43,105,155,left,change,valid,clock,1,0.7053628931898857,0,j,1,change,0.9778608982142032,0.16631034046779453,0,0,0,0.3874759768968943,0,0,4.691848374126494
8,23,female,44,45,45,right,same,valid,anti,3,0.8494784196191176,1,j,0,change,0.4872963007619546,0.16726374884529382,0,0,0,0.3873836050170212,0,0,4.490700268648652
8,23,female,45,15,65,right,change,valid,clock,3,1.1694344018542324,1,j,1,change,1.828637976645041,0.16693225296519254,0,0,0,0.3875481424274767,0,0,5.835721745110277
8,23,female,46,75,25,left,change,valid,anti,1,0.6735003682042588,0,j,1,change,0.7533956287570618,0.16660810225752476,0,0,0,0.38750388090193155,0,0,4.865335592168776
8,23,female,47,135,185,right,change,valid,clock,4,0.8894581234653742,1,j,1,change,0.8394079604040598,0.16756200993503123,0,0,0,0.3875475009554066,0,0,4.604806160177759
8,23,female,48,15,325,left,change,valid,anti,2,1.6493720636663056,1,f,0,same,1.321673842594464,0.1672279706359881,0,0,0,0.3874644304105459,0,0,5.985814501871573
8,23,female,49,105,105,right,same,valid,anti,1,3.105420689762468,0,j,0,change,0.7994282565578033,0.16690207883885594,0,0,0,0.38742081035888987,0,0,7.049511006365719
8,23,female,50,15,325,right,change,valid,anti,1,0.6334539513354684,0,f,0,same,0.3936267252374819,0.16785884818745717,0,0,0,0.3874644304123649,0,0,4.293069350753285
8,23,female,51,165,215,right,change,valid,clock,3,0.7054745092100347,1,j,1,change,0.5790530086305807,0.16887138747845032,0,0,0,0.38749714545156166,0,0,4.09784491274695
8,23,female,52,15,15,left,same,valid,anti,3,0.9294031878562237,1,f,1,same,0.7853434694370662,0.16850721075949043,0,0,0,0.38748495749496215,0,0,4.59376162666922
8,23,female,53,135,85,right,change,valid,anti,3,0.8734004911111697,1,f,0,same,1.7358513864764973,0.1681550379911067,0,0,0,0.3874176030021772,0,0,5.629648101628845
8,23,female,54,45,45,right,same,valid,clock,1,2.0414226937191415,0,j,0,change,0.6742884157956723,0.1678137062795908,0,0,0,0.3874974661885062,0,0,5.773200416188047
8,23,female,55,135,135,right,same,valid,anti,4,1.4732054196629178,1,f,1,same,0.5942238068000734,0.1688090274852615,0,0,0,0.3874711658627348,0,0,5.408242650661123
8,23,female,56,105,155,right,change,valid,clock,2,0.8574037985363248,1,j,1,change,0.5549086673036072,0.1684513151387395,0,0,0,0.3874272250704962,0,0,4.193377000428882
8,23,female,57,135,135,left,same,valid,anti,4,1.2894889782382961,1,f,1,same,0.392972103692955,0.16810527199210856,0,0,0,0.38747341101043276,0,0,4.41149523130116
8,23,female,58,45,355,right,change,valid,anti,3,0.7534135899550165,1,j,1,change,0.5143885238212533,0.16776977171349394,0,0,0,0.3874872026462981,0,0,4.330832129506234
