subject,age,gender,ntrial,memory_ori,test_ori,cue,type,trial_type,which_change,pas,pas_rt,vis,test_key,test_acc,test,test_rt,contrast,fix_dur,cue_dur,jitter_dur,target_dur,mask_dur,retention_dur,trial_dur
9,26,female,1,15,15,right,same,valid,anti,1,2.0002376651464147,0,f,0,change,1.3187756748920947,0.5,0,0,0,0.3875260116656136,0,0,6.393748925536784
9,26,female,2,135,135,left,same,valid,anti,3,0.649250504837255,1,j,1,same,1.983141811360838,0.6571452603159259,0,0,0,0.3874156785859668,0,0,5.528139425088739
9,26,female,3,15,15,left,same,valid,anti,3,1.0892389326945704,1,j,1,same,2.5823941123162513,0.6071840821787083,0,0,0,0.3874958625092404,0,0,6.475335425388039
9,26,female,4,105,105,left,same,valid,clock,3,0.5534358490112936,1,j,1,same,0.7336241978409817,0.5725780085130471,0,0,0,0.3874050943086331,0,0,4.417388749618112
9,26,female,5,75,75,left,same,valid,anti,2,1.5054111318386276,1,j,1,same,1.9415898611587181,0.5448625330919917,0,0,0,0.38748271234726417,0,0,6.5054008682964195
9,26,female,6,165,165,right,same,valid,anti,3,0.8493433898947842,1,j,1,same,1.5898387084343995,0.5214749769659333,0,0,0,0.3874698829204135,0,0,5.502877319882828
9,26,female,7,45,45,right,same,valid,anti,1,2.873450525879889,0,f,0,change,1.5181857136631152,0.501479045132303,0,0,0,0.38743075316233444,0,0,7.458750503556075
9,26,female,8,45,45,left,same,valid,anti,3,0.7452656204695813,1,j,1,same,3.9409862365901063,0.5443030923458257,0,0,0,0.3874823916085006,0,0,7.7526739734530565
9,26,female,9,135,85,right,change,valid,anti,3,1.1854250004507776,1,j,0,same,0.8369254661593004,0.5304450981196174,0,0,0,0.38742273477328126,0,0,4.766040954098571
9,26,female,10,165,115,right,change,valid,anti,3,0.3854386637904099,1,j,0,same,0.831706454999221,0.5183976517898878,0,0,0,0.38747437321944744,0,0,4.3989483718178235
9,26,female,11,75,75,right,same,valid,clock,3,0.4174041449332435,1,j,1,same,1.4730319016562134,0.5076341384359251,0,0,0,0.3874471106828423,0,0,4.934524053893256
9,26,female,12,135,75,left,change,catch,anti,3,0.4012929497148434,1,j,0,same,2.3361954717256594,0,0,0,0,0.38748976853094064,0,0,7.328407367684122
9,26,female,13,165,115,left,change,valid,anti,3,0.5280656558788905,1,j,0,same,2.3256888119685755,0.49780119384708726,0,0,0,0.3874859197057958,0,0,6.1023355331526545
9,26,female,14,15,65,right,change,valid,clock,3,0.28940751137270126,1,j,0,same,1.8196795080693846,0.4886590884470319,0,0,0,0.38744197891355725,0,0,4.889243551289837
9,26,female,15,105,55,left,change,valid,anti,3,0.601412135099963,1,j,0,same,1.7320221230656898,0.48003758394778595,0,0,0,0.3873938685574103,0,0,5.157323101437214
9,26,female,16,135,135,right,same,valid,anti,3,1.7212441209121607,1,f,0,change,2.594341516796703,0.4717830893994973,0,0,0,0.3874089431374159,0,0,7.008183891884983
9,26,female,17,75,75,left,same,valid,clock,3,0.7614691875642166,1,f,0,change,1.156667196952185,0.4637756709624097,0,0,0,0.38748207087337505,0,0,4.794523566375574
9,26,female,18,45,95,left,change,valid,clock,2,0.8090073486964684,1,f,1,change,2.567665287933778,0.4559191571940627,0,0,0,0.3874766183689644,0,0,6.61212823526148
9,26,female,19,135,135,left,same,valid,clock,3,1.7293895245165913,1,f,0,change,1.2887631533703825,0.44865851571289866,0,0,0,0.38745128025038866,0,0,5.876541134992294
9,26,female,20,105,105,right,same,valid,anti,3,0.7534289852665097,1,j,1,same,0.8265496665626415,0.4413592746657677,0,0,0,0.3874775805779791,0,0,4.817906160435086
9,26,female,21,165,165,right,same,valid,clock,3,0.9532832429722475,1,j,1,same,1.742193614023563,0.43386377378560453,0,0,0,0.3874313946325856,0,0,5.811931816726428
9,26,female,22,105,55,right,change,valid,anti,2,2.8813919415806595,1,f,1,change,0.9697392290545395,0.4260811501518099,0,0,0,0.3874394130289147,0,0,7.007747691342956
9,26,female,23,105,15,left,same,catch,anti,3,1.025299310545961,1,j,1,same,2.5436409017565893,0,0,0,0,0.38745160098551423,0,0,8.170935124147945
9,26,female,24,135,85,left,change,valid,anti,3,1.6322037236132019,1,f,1,change,2.342125233175466,0.41847258420694855,0,0,0,0.38745128025038866,0,0,7.090289342078904
9,26,female,25,135,85,right,same,catch,clock,1,1.0093690102585242,0,f,0,change,1.6579411591155804,0,0,0,0,0.3874660340916307,0,0,7.109864482754347
9,26,female,26,165,165,left,same,valid,anti,1,1.0801236243642052,0,f,0,change,2.704867998018017,0.41027403236757326,0,0,0,0.3874131127013243,0,0,6.651325344020734
9,26,female,27,15,325,left,change,valid,anti,3,0.5453674219788809,1,j,0,same,2.6702686353855825,0.43198708677600894,0,0,0,0.3874262628633005,0,0,6.532353250593587
9,26,female,28,15,65,left,change,valid,clock,2,0.9772858191208798,1,f,1,change,2.845372682044399,0.4265304084951855,0,0,0,0.38746475114749046,0,0,6.946224812625587
9,26,female,29,15,325,right,change,valid,anti,2,0.9932215719127271,1,j,0,same,2.330991214406822,0.4213864008286038,0,0,0,0.3874070187230245,0,0,6.251400652759912
9,26,female,30,45,355,right,same,catch,clock,1,0.6812695488406462,0,f,0,change,2.109660174122837,0,0,0,0,0.3874641096772393,0,0,7.467873509540368
9,26,female,31,45,45,right,same,valid,clock,1,0.32835444629381527,0,f,0,change,1.4358406739047496,0.4160204660897512,0,0,0,0.38742369697865797,0,0,5.0000388090193155
9,26,female,32,45,355,right,change,valid,anti,3,0.6971636059934099,1,j,0,same,2.5105685617454583,0.43024719310900983,0,0,0,0.3874002832744736,0,0,6.0147907263781235
9,26,female,33,45,65,right,same,catch,anti,3,0.329008426368091,1,j,1,same,2.1897437065235863,0,0,0,0,0.3874798257238581,0,0,6.9225413684907835
9,26,female,34,165,215,right,change,valid,clock,1,1.1277086129084637,0,f,1,change,1.6884604430269974,0.4258932163814058,0,0,0,0.3874397337640403,0,0,6.087209317240195
9,26,female,35,45,45,left,change,catch,anti,2,0.6813866173688439,1,f,1,change,0.7673809878142492,0,0,0,0,0.38742947022183216,0,0,6.407895614644076
9,26,female,36,75,25,left,change,valid,anti,1,0.5122309348262206,0,f,1,change,1.6161739952658536,0.4375421599920736,0,0,0,0.3874997113380232,0,0,5.173467653166881
9,26,female,37,75,125,right,change,valid,clock,3,0.48122156678073225,1,j,0,same,1.4903798536943214,0.44799502379898243,0,0,0,0.3874817501382495,0,0,5.032529655221879
9,26,female,38,45,95,right,change,valid,clock,1,0.34537973822807544,0,f,1,change,1.1376571925611643,0.444511047835323,0,0,0,0.3874034906330053,0,0,4.488063500535645
9,26,female,39,15,15,left,same,valid,clock,3,0.6653501535693067,1,f,0,change,1.6424695108653395,0.4535743242768608,0,0,0,0.3874387715550256,0,0,5.297550028353726
9,26,female,40,75,75,right,same,valid,anti,1,0.37732693743600976,0,f,0,change,1.4910755294040428,0.45021243579896575,0,0,0,0.38743043242720887,0,0,4.656129002461967
9,26,female,41,135,135,right,same,valid,clock,1,0.28134100875104195,0,f,0,change,2.1705194506939733,0.458833997113373,0,0,0,0.38746314746822463,0,0,5.349757138934365
9,26,female,42,135,185,left,change,valid,clock,3,0.32942538276620326,1,j,0,same,2.0902816444249765,0.46721368608556707,0,0,0,0.387385208694468,0,0,5.501946544907696
9,26,female,43,165,215,left,change,valid,clock,3,0.33740432454214897,1,j,0,same,2.0997433473021374,0.4643522672182853,0,0,0,0.3875423691824835,0,0,5.217550207966269
9,26,female,44,165,135,right,change,catch,anti,1,0.3934570560595603,0,f,1,change,1.138751222002611,0,0,0,0,0.38747693910409,0,0,5.815176378968317
9,26,female,45,105,105,right,same,valid,clock,1,0.19220118338489556,0,f,0,change,2.2389731069561094,0.46142490491336713,0,0,0,0.387440695969417,0,0,5.761772282792663
9,26,female,46,75,125,left,change,valid,clock,4,0.4892085269530071,1,j,0,same,3.1610397866206768,0.4688961897778171,0,0,0,0.38746956218164996,0,0,6.811692868635873
9,26,female,47,15,15,right,same,valid,clock,3,0.33725871054048184,1,j,1,same,1.5005304968326527,0.4662279587162728,0,0,0,0.3874156785859668,0,0,4.825063698106533
9,26,female,48,15,185,left,change,catch,anti,3,0.3294648332557699,1,j,0,same,2.9824596065482183,0,0,0,0,0.387455449814297,0,0,7.640380238575744
9,26,female,49,15,15,right,change,catch,clock,1,0.44786601715532015,0,f,1,change,2.9035441935302515,0,0,0,0,0.38746475114749046,0,0,7.9682333749842655
9,26,female,50,15,75,left,change,catch,clock,1,0.3113294750946807,0,f,1,change,1.3475928144944191,0,0,0,0,0.38740477357350755,0,0,6.189767120227771
9,26,female,51,105,105,left,same,valid,anti,1,0.2555609154078411,0,f,0,change,1.25461057555367,0.46370135052660494,0,0,0,0.38746507188261603,0,0,4.902119164853502
9,26,female,52,165,165,left,same,valid,clock,3,0.24137926610274008,1,j,1,same,1.7857456719902984,0.4704925219035905,0,0,0,0.3875433313914982,0,0,5.002282675908646
9,26,female,53,135,185,right,change,valid,clock,4,1.2333682507560297,1,j,0,same,1.3880029456377088,0.46796517881822886,0,0,0,0.38744486553332536,0,0,5.5604243589768885
9,26,female,54,105,155,left,change,valid,clock,4,0.6093458531431679,1,j,0,same,2.2546022364258533,0.46559364547173626,0,0,0,0.387539803297841,0,0,6.270561402921885
9,26,female,55,45,355,left,change,valid,anti,1,0.3453467024519341,0,f,1,change,1.6207242725067772,0.4633277807167214,0,0,0,0.38748752338142367,0,0,4.653905341914651
9,26,female,56,75,25,right,change,valid,anti,3,0.9773493247848819,1,f,1,change,1.9383273377170553,0.4694634701489105,0,0,0,0.3874025284239906,0,0,5.73189030069625
9,26,female,57,45,45,left,same,valid,clock,3,1.6333734466788883,1,j,1,same,2.3012622232345166,0.46720805170101026,0,0,0,0.3874413374433061,0,0,6.781495603354415
9,26,female,58,105,155,right,change,valid,clock,3,0.5694405599788297,1,j,0,same,1.8640965901977324,0.46507343838170984,0,0,0,0.38746475114749046,0,0,5.673833291850315
9,26,female,1,165,165,left,same,valid,clock,1,0.344229259306303,0,f,0,change,2.192750282887573,0.46301878963636556,0,0,0,0.38748495749678113,0,0,5.4650369230912474
9,26,female,2,15,185,left,change,catch,anti,3,0.4653586209897185,1,j,0,same,1.6854089636653953,0,0,0,0,0.38748463676165557,0,0,6.579623597423051
9,26,female,3,15,75,left,change,catch,clock,1,0.360059490056301,0,f,1,change,1.5054377528977056,0,0,0,0,0.38736371940467507,0,0,6.751209815025504
9,26,female,4,15,65,right,change,valid,clock,1,0.2720951609990152,0,f,1,change,1.9709727785229916,0.4686158586668692,0,0,0,0.3875141444441397,0,0,5.50691794811064
9,26,female,5,45,45,left,same,valid,anti,3,0.6093740778851497,1,j,1,same,1.3805259552136704,0.4743732782260717,0,0,0,0.38740766019327566,0,0,4.822974746552063
9,26,female,6,75,75,left,same,valid,clock,3,1.2173718789199484,1,j,1,same,2.85005959269256,0.4723139114251087,0,0,0,0.38743524346500635,0,0,7.169360632644384
9,26,female,7,165,135,right,change,catch,anti,1,0.43336780172830913,0,f,1,change,0.8246547601011116,0,0,0,0,0.3874493558323593,0,0,5.830777283703355
9,26,female,8,105,155,right,change,valid,clock,3,0.4562587079744844,1,j,0,same,1.454168152740749,0.47028236891263464,0,0,0,0.3874795049887325,0,0,4.851882333623507
9,26,female,9,135,185,right,change,valid,clock,3,0.30527206084298086,1,j,0,same,1.467496324370586,0.46830714172202803,0,0,0,0.38744486553332536,0,0,4.830767340896273
9,26,female,10,135,135,right,same,valid,anti,3,0.40942488241853425,1,j,1,same,1.1022396331791242,0.46644293753913424,0,0,0,0.38738488795934245,0,0,4.385193621721555
9,26,female,11,15,325,left,change,valid,anti,3,0.441362138819386,1,f,1,change,2.533837936105556,0.46465846358091456,0,0,0,0.38740862240229035,0,0,6.111767728343693
9,26,female,12,165,215,right,change,valid,clock,3,0.5854728542144585,1,f,1,change,1.0515239435626427,0.46280631845008924,0,0,0,0.38747148659604136,0,0,4.507742880308797
9,26,female,13,105,55,left,change,valid,anti,3,0.40930973830472794,1,j,0,same,1.9822219414018036,0.4609792462731709,0,0,0,0.3874137541715754,0,0,5.750003207354894
9,26,female,14,165,215,left,change,valid,clock,3,0.2330750983383041,1,j,0,same,1.5310667797384667,0.4591657876241675,0,0,0,0.387493938094849,0,0,4.583900928591902
9,26,female,15,135,185,left,change,valid,clock,3,0.8734710529606673,1,f,1,change,1.3836563355580438,0.45744157677108693,0,0,0,0.3874766183689644,0,0,5.012658154770179
9,26,female,16,15,65,left,change,valid,clock,3,0.7933387687335198,1,j,0,same,2.1407936668838374,0.45579788408346716,0,0,0,0.3874281872776919,0,0,6.14771418087912
9,26,female,17,165,165,right,same,valid,clock,3,0.2893901916468167,1,j,1,same,1.2367600306897657,0.4542107536188983,0,0,0,0.38748688191117253,0,0,4.3840899702117895
9,26,female,18,135,135,left,same,valid,anti,3,0.29736656753811985,1,j,1,same,1.2106370708897884,0.4525508153891872,0,0,0,0.3874823916121386,0,0,4.519382699261769
9,26,female,19,105,105,left,same,valid,anti,3,0.8492702621551871,1,j,1,same,2.331014307379519,0.45090404890323166,0,0,0,0.3874702036555391,0,0,6.1057391803005885
9,26,female,20,45,95,right,change,valid,clock,3,0.801356519532419,1,f,1,change,0.9362258774708607,0.44926057080006315,0,0,0,0.38739547223667614,0,0,4.612784460485273
9,26,female,21,75,25,right,change,valid,anti,3,2.073552391535486,1,f,1,change,1.0129057627236762,0.4476912098068594,0,0,0,0.38742497992279823,0,0,6.089993303037772
9,26,female,22,45,45,left,change,catch,anti,3,0.5693616589996964,1,j,0,same,1.701649094626191,0,0,0,0,0.38747597689871327,0,0,6.626234190938703
9,26,female,23,105,105,right,same,valid,clock,3,0.543837833469297,1,j,1,same,1.7201302058601868,0.44619320027892395,0,0,0,0.3874669962970074,0,0,5.517020480900101
9,26,female,24,15,15,right,change,catch,clock,3,0.5933004087455629,1,j,0,same,2.396054694414488,0,0,0,0,0.38748944779581507,0,0,7.359412245430576
9,26,female,25,75,125,right,change,valid,clock,1,0.2320317451376468,0,f,1,change,2.506444221497077,0.4447466828095016,0,0,0,0.38752184210170526,0,0,6.243459878533031
9,26,female,26,45,45,right,same,valid,anti,3,0.7853652794619848,1,j,1,same,2.406693818011263,0.4486752443224507,0,0,0,0.3874291494830686,0,0,6.226727418281371
9,26,female,27,45,65,right,same,catch,anti,1,0.2253466511319857,0,f,0,change,0.9063394050754141,0,0,0,0,0.38749137221020646,0,0,5.581303931707225
9,26,female,28,15,15,right,same,valid,clock,3,0.4400673288364487,1,j,1,same,1.9027734656629036,0.4472189101175939,0,0,0,0.3874217725642666,0,0,5.406783303271368
9,26,female,29,105,55,right,change,valid,anti,3,0.2813317074178485,1,j,0,same,2.4255040040625317,0.44582202154964046,0,0,0,0.38748591970215784,0,0,5.551156059722416
9,26,female,30,45,355,left,change,valid,anti,3,0.8493632755053113,1,f,1,change,1.9077288320877415,0.4444675154490827,0,0,0,0.38737045485322597,0,0,5.661208172859915
9,26,female,31,45,355,right,same,catch,clock,3,0.32939330919543863,1,j,1,same,1.1232587259364664,0,0,0,0,0.3874846367580176,0,0,5.877401989589998
9,26,female,32,165,165,left,same,valid,anti,3,0.30425564943652716,1,j,1,same,1.8101459604004049,0.4430477327474279,0,0,0,0.3874131127013243,0,0,5.586618201366946
9,26,female,33,15,15,right,same,valid,anti,3,0.37746998555303435,1,f,0,change,1.3929268799583951,0.4416388591320388,0,0,0,0.38748271234726417,0,0,4.616576518554211
9,26,female,34,165,165,right,same,valid,anti,3,0.3854922266509675,1,j,1,same,1.0590657225911855,0.4402246753609388,0,0,0,0.38748110866799834,0,0,4.389633886625234
9,26,female,35,135,85,right,same,catch,clock,3,0.7933118269356783,1,f,0,change,1.7794406497851014,0,0,0,0,0.38744775215309346,0,0,7.296125961885991
9,26,female,36,45,355,right,change,valid,anti,3,0.41605192326096585,1,j,0,same,2.4253202225118002,0.4388233264507391,0,0,0,0.3874301116920833,0,0,6.190550036051718
9,26,female,37,75,125,left,change,valid,clock,3,0.3854332112823613,1,f,1,change,1.1677944802650018,0.4374895770302583,0,0,0,0.3874702036519011,0,0,4.595962835712271
9,26,female,38,135,85,left,change,valid,anti,1,0.2813227268161427,0,f,1,change,1.4126165232773928,0.4362095403212041,0,0,0,0.3874881648553128,0,0,4.584391333464737
9,26,female,39,105,105,left,same,valid,clock,1,0.22538449794592452,0,f,0,change,1.2438197439732903,0.4399335967111399,0,0,0,0.387467317032133,0,0,4.4128394345789275
9,26,female,40,165,115,left,change,valid,anti,1,0.20130173787401873,0,f,1,change,1.9573546618303226,0.4434990015879738,0,0,0,0.38748207087701303,0,0,5.092938618887274
9,26,female,41,135,75,left,change,catch,anti,3,0.8413339782273397,1,j,0,same,2.5748648419794335,0,0,0,0,0.38746026084845653,0,0,7.748855294317764
9,26,female,42,45,45,left,same,valid,clock,3,0.6641056990883953,1,j,1,same,1.5542190855703666,0.44680533429962277,0,0,0,0.3874814294031239,0,0,5.379311329154007
9,26,female,43,135,135,right,same,valid,clock,3,0.3373982305674872,1,j,1,same,2.1882805103050487,0.44561739474254786,0,0,0,0.3875346715285559,0,0,5.515959166496032
9,26,female,44,15,325,right,change,valid,anti,3,0.4572966086670931,1,j,0,same,2.020722732977447,0.444460206947529,0,0,0,0.38749810765875736,0,0,5.344078834266838
9,26,female,45,135,135,left,same,valid,clock,3,0.2572595316232764,1,j,1,same,1.2258306412913953,0.4432435182600152,0,0,0,0.38742754580744077,0,0,4.287448778508406
9,26,female,46,45,45,right,same,valid,clock,3,0.27345892915400327,1,j,1,same,1.1062578099117673,0.44203452919002795,0,0,0,0.3874509595116251,0,0,4.284069507270033
9,26,female,47,75,75,left,same,valid,anti,3,0.3531197319171042,1,f,0,change,2.310586651234189,0.4408212120940635,0,0,0,0.3874089431374159,0,0,5.528675695164566
9,26,female,48,105,15,left,same,catch,anti,1,0.5929896158595511,0,j,1,same,3.3190389988922107,0,0,0,0,0.3874881648553128,0,0,8.497587746871432
9,26,female,49,105,105,right,same,valid,anti,3,0.32045087740698364,1,j,1,same,1.5400566804128175,0.43959550874068304,0,0,0,0.3873983588600822,0,0,5.541621870579547
9,26,female,50,135,85,right,change,valid,anti,3,1.0254150961300184,1,j,0,same,1.564280884922482,0.43841100048289494,0,0,0,0.3874336397857405,0,0,5.377375047788519
9,26,female,51,105,155,left,change,valid,clock,3,0.7453493324865121,1,f,1,change,1.2994882341336051,0.43727895422451246,0,0,0,0.38746378894211375,0,0,5.570589435221336
9,26,female,52,45,95,left,change,valid,clock,3,0.2334000035916688,1,j,0,same,1.650036628016096,0.4361878913658706,0,0,0,0.3874269043371896,0,0,4.928185033702903
9,26,female,53,15,15,left,same,valid,anti,3,0.3694304247292166,1,j,1,same,1.2015265735935827,0.43512741791580456,0,0,0,0.3874596193745674,0,0,4.373445394106966
9,26,female,54,75,75,right,same,valid,clock,3,0.23330538656227873,1,j,1,same,1.9184667422741768,0.4340879950352272,0,0,0,0.3875045223721827,0,0,5.068143504846375
9,26,female,55,75,75,right,same,valid,anti,3,0.2173827839360456,1,j,1,same,1.1889123596156423,0.4329889021392971,0,0,0,0.3874070187230245,0,0,4.308995160739869
9,26,female,56,75,25,left,change,valid,anti,3,0.8013764051465841,1,f,1,change,1.715936586704629,0.431891900704478,0,0,0,0.38739515150155057,0,0,5.51415887706753
9,26,female,57,15,15,left,same,valid,clock,3,0.6489041102904594,1,f,0,change,1.6132963546479004,0.4307871674935077,0,0,0,0.38749425882997457,0,0,5.238366275025328
9,26,female,58,165,115,right,change,valid,anti,3,0.26536131516695605,1,f,1,change,1.1537504265797907,0.42966667579962825,0,0,0,0.38747725983921555,0,0,4.395091525137104
9,26,female,1,135,85,right,same,catch,clock,1,0.27977774299506564,0,f,0,change,0.6489688989022397,0,0,0,0,0.38749137221020646,0,0,5.560116131979157
9,26,female,2,75,75,right,same,valid,clock,3,0.43225388667633524,1,j,1,same,1.6773123118873627,0.4285779025210208,0,0,0,0.38749650397949154,0,0,5.315962822885922
9,26,female,3,135,135,left,same,valid,clock,1,0.24135938049221295,0,f,0,change,1.1407083511876408,0.4275364695668874,0,0,0,0.38737237926761736,0,0,4.322374970812234
9,26,female,4,105,15,left,same,catch,anti,3,0.4093556035113579,1,j,1,same,1.4911531474426738,0,0,0,0,0.3874220933030301,0,0,6.392453474079957
9,26,female,5,45,65,right,same,catch,anti,3,0.3599918148247525,1,j,1,same,1.3024229656984971,0,0,0,0,0.3875308226997731,0,0,6.735791408900695
9,26,female,6,75,75,left,same,valid,clock,3,0.36011433585736086,1,j,1,same,0.732351839356852,0.4305358646658567,0,0,0,0.38744775215673144,0,0,4.381959002279473
9,26,female,7,15,15,right,same,valid,anti,3,0.5373246538001695,1,f,0,change,1.4866532257001381,0.4294592080403436,0,0,0,0.38747180733116693,0,0,5.109073869276472
9,26,female,8,15,15,left,same,valid,anti,3,0.3133975788296084,1,j,1,same,1.0205604407165083,0.4284220878739404,0,0,0,0.3874679585060221,0,0,4.366571066049801
9,26,female,9,15,15,left,same,valid,clock,3,0.22542106181572308,1,j,1,same,0.7943487654229102,0.42742839254936305,0,0,0,0.3873961137069273,0,0,4.213298214912356
9,26,female,10,105,55,right,change,valid,anti,3,0.24934409551133285,1,j,0,same,1.647116008814919,0.426469305475097,0,0,0,0.3874240177174215,0,0,5.14421784111255
9,26,female,11,165,165,right,same,valid,anti,1,0.28937896589559386,0,f,0,change,3.003394025079615,0.4255367810151324,0,0,0,0.3874291494867066,0,0,5.986339546197996
9,26,female,12,165,215,left,change,valid,clock,1,0.28933502510699327,0,f,1,change,2.1653540023944515,0.428278478432112,0,0,0,0.38738392575396574,0,0,5.41767003482164
9,26,female,13,165,115,left,change,valid,anti,3,0.5613153627273277,1,f,1,change,2.1137171598711575,0.4310778210261056,0,0,0,0.3874054150473967,0,0,5.36390286583628
9,26,female,14,135,135,left,same,valid,anti,3,0.2494560322702455,1,j,1,same,1.0770888232582365,0.43008342306197095,0,0,0,0.3875253701953625,0,0,4.060534050582646
9,26,female,15,75,25,left,change,valid,anti,2,2.8009145457508566,1,j,0,same,3.1793454554317577,0.4290924479158855,0,0,0,0.3874570534899249,0,0,8.851365628423082
9,26,female,16,105,105,left,same,valid,clock,3,0.7212361025194696,1,j,1,same,3.417547193050268,0.42814570758654896,0,0,0,0.3874644304123649,0,0,7.2928849277304835
9,26,female,17,75,125,right,change,valid,clock,2,1.1614439135883003,1,f,1,change,2.1171111849507724,0.42723588296320464,0,0,0,0.387431073901098,0,0,6.197710781081696
9,26,female,18,165,115,right,change,valid,anti,2,1.0094126303156372,1,f,1,change,1.7902824783377582,0.42635559738690293,0,0,0,0.3874416581784317,0,0,6.299372127810784
9,26,female,19,105,105,right,same,valid,clock,2,0.5134519756029476,1,j,1,same,1.1761047420113755,0.42549807794753125,0,0,0,0.3874548083404079,0,0,5.052454718537774
9,26,female,20,45,355,left,change,valid,anti,2,1.1134089328770642,1,f,1,change,1.0551790474928566,0.42465703859548537,0,0,0,0.38746282673673704,0,0,5.404239548508485
9,26,female,21,105,55,left,change,valid,anti,3,1.9533624646901444,1,f,1,change,1.1929946834825387,0.4237689188199626,0,0,0,0.3875006735470379,0,0,6.534180161088443
9,26,female,22,15,325,right,change,valid,anti,3,1.16928525975527,1,f,1,change,3.4921689173752384,0.4228849990010458,0,0,0,0.3873624364641728,0,0,7.899638595023134
9,26,female,23,15,75,left,change,catch,clock,1,0.33732798945129616,0,f,1,change,1.2884658313851105,0,0,0,0,0.3874974661885062,0,0,6.5484429565149185
9,26,female,24,105,155,left,change,valid,clock,3,0.5119589509631624,1,j,0,same,2.2917411842609,0.4219987090494253,0,0,0,0.3874974661885062,0,0,6.212109889180283
9,26,female,25,165,215,right,change,valid,clock,3,0.5533351380072418,1,f,1,change,1.1331415547720098,0.42110361822050085,0,0,0,0.38744582774234004,0,0,4.305905193094077
9,26,female,26,45,45,left,same,valid,anti,3,1.1853881158458535,1,j,1,same,0.8901140279522224,0.4201933411745591,0,0,0,0.3874817501382495,0,0,5.215308906957944
9,26,female,27,45,95,right,change,valid,clock,3,0.41736405296978774,1,j,0,same,3.019283271194581,0.4192764101165964,0,0,0,0.3874750146896986,0,0,6.387408943137416
9,26,female,28,75,25,right,change,valid,anti,3,0.25734709246899,1,f,1,change,1.8383893038517272,0.41839753323869333,0,0,0,0.38741888594449847,0,0,5.213979778254725
9,26,female,29,45,355,right,change,valid,anti,3,0.26538697402429534,1,f,1,change,1.014805159480602,0.417553114107582,0,0,0,0.3874204896237643,0,0,4.186332040982961
9,26,female,30,135,185,right,change,valid,clock,3,0.8253536431730026,1,f,1,change,3.08535642716015,0.4167367890814133,0,0,0,0.387448072891857,0,0,7.020405846113135
9,26,female,31,135,75,left,change,catch,anti,1,0.7293869586319488,0,f,1,change,1.3509416158412932,0,0,0,0,0.3874596193745674,0,0,6.813339525673655
9,26,female,32,135,135,right,same,valid,anti,3,0.3758576472355344,1,j,1,same,0.8488840963836992,0.4159427026153666,0,0,0,0.3874291494867066,0,0,4.796424246080278
9,26,female,33,15,325,left,change,valid,anti,3,1.9053201070491923,1,f,1,change,1.7775463847974606,0.41516541444697275,0,0,0,0.38749329662459786,0,0,6.694043489194883
9,26,female,34,135,185,left,change,valid,clock,2,2.1054441034684714,1,f,1,change,1.4447895204102679,0.4143998179171888,0,0,0,0.38748078793287277,0,0,6.4322285485541215
9,26,female,35,15,185,left,change,catch,anti,2,0.8892063459497876,1,j,0,same,3.6006635379962972,0,0,0,0,0.3874461484774656,0,0,8.840642151339125
9,26,female,36,165,135,right,change,catch,anti,3,0.49622365797768,1,f,1,change,1.2869484308321262,0,0,0,0,0.3874721280662925,0,0,6.829028953452507
9,26,female,37,45,355,right,same,catch,clock,1,0.31198217222845415,0,f,0,change,2.4706385719291575,0,0,0,0,0.38744582774234004,0,0,7.703064501227345
9,26,female,38,165,165,left,same,valid,clock,3,0.4482124117021158,1,j,1,same,1.272060521543608,0.4135881370769638,0,0,0,0.3873294006843935,0,0,4.838734094715619
9,26,female,39,15,15,right,same,valid,clock,3,0.5294425741994928,1,f,0,change,1.0581147412704013,0.4127777159858712,0,0,0,0.38743716787939775,0,0,4.617615381455835
9,26,female,40,45,95,left,change,valid,clock,3,0.4413906842964934,1,f,1,change,1.3998996738737333,0.4119630437027589,0,0,0,0.38744743142160587,0,0,5.126649864392675
9,26,female,41,165,165,right,same,valid,clock,3,1.0494584057123575,1,j,1,same,1.1054017663554987,0.4111386826284009,0,0,0,0.3874060565176478,0,0,5.000202063481993
9,26,female,42,15,65,right,change,valid,clock,1,0.24941914766532136,0,f,1,change,1.154866907520045,0.41029919688623584,0,0,0,0.387510937085608,0,0,4.799342940863426
9,26,female,43,15,65,left,change,valid,clock,1,0.2973537381112692,0,f,1,change,2.1388461597671267,0.412536087335255,0,0,0,0.38745320466478006,0,0,5.464941343856481
9,26,female,44,45,45,right,same,valid,clock,3,0.5294932504402823,1,j,1,same,1.101820431631495,0.41459531965707985,0,0,0,0.38747533542482415,0,0,4.691703401593259
9,26,female,45,135,85,right,change,valid,anti,3,0.5934633424731146,1,j,0,same,1.0406721722029033,0.41383231181485647,0,0,0,0.38735409733635606,0,0,4.722767294711957
9,26,female,46,135,85,left,change,valid,anti,3,0.3693858424703649,1,j,0,same,1.24743507668245,0.4130715756237906,0,0,0,0.387455449814297,0,0,4.6982688611824415
9,26,female,47,165,165,left,same,valid,anti,2,2.3133398464051425,1,f,0,change,1.5468335048208246,0.412308200846599,0,0,0,0.38749073073631735,0,0,6.809901559801801
9,26,female,48,105,105,right,same,valid,anti,2,1.0413848469070217,1,f,0,change,0.9636622499238001,0.41153735411337283,0,0,0,0.38750388090193155,0,0,4.918593112135568
9,26,female,49,135,135,right,same,valid,clock,3,0.4333966679405421,1,j,1,same,0.8001431764132576,0.4107542184515668,0,0,0,0.38749618324436597,0,0,4.379607688933902
9,26,female,50,45,45,left,change,catch,anti,2,0.8973376371795894,1,f,1,change,1.7156203413142066,0,0,0,0,0.3874721280662925,0,0,7.202769424395228
9,26,female,51,45,45,right,same,valid,anti,3,0.5523155192458944,1,j,1,same,1.0634684614196885,0.4099534505993186,0,0,0,0.38748303308238974,0,0,5.193435053588473
9,26,female,52,105,155,right,change,valid,clock,1,0.35324995060727815,0,f,1,change,2.944287248319597,0.4091549712335618,0,0,0,0.38743331905061495,0,0,6.461394327852759
9,26,female,53,15,15,right,change,catch,clock,1,0.24937135804793797,0,f,1,change,0.9065180548532226,0,0,0,0,0.38744454480183776,0,0,6.002169456212869
9,26,female,54,45,45,left,same,valid,clock,1,0.17635812321168487,0,f,0,change,1.090060978269321,0.4113411140509497,0,0,0,0.3874551290755335,0,0,4.266354312869225
9,26,female,55,75,75,right,same,valid,anti,3,1.1214895478660765,1,j,1,same,1.0337141321251693,0.4133305506162258,0,0,0,0.38742594212817494,0,0,5.117257761161454
9,26,female,56,105,105,left,same,valid,anti,2,1.121381139200821,1,f,0,change,1.5733285180212988,0.412612345149238,0,0,0,0.38750195648754016,0,0,6.279662598881259
9,26,female,57,75,125,left,change,valid,clock,2,0.7294783683028072,1,f,1,change,1.061679718470259,0.41188845100016513,0,0,0,0.3874365264091466,0,0,5.35163472567001
9,26,female,58,75,75,left,same,valid,anti,2,0.8653391202606144,1,j,1,same,1.888076073373668,0.4111545660600884,0,0,0,0.3875526327283296,0,0,6.159642020480533
9,26,female,1,135,185,right,change,valid,clock,1,0.2718151587359898,0,f,1,change,0.6082643323934462,0.4104063649465199,0,0,0,0.38748688191117253,0,0,4.00919003974559
9,26,female,2,105,105,right,same,valid,clock,3,0.21737797289824812,1,j,1,same,1.736618586248369,0.41240087256904534,0,0,0,0.3874682792411477,0,0,5.028073995006707
9,26,female,3,165,165,left,same,valid,anti,1,1.1933359462600492,0,j,1,same,2.1529030428864644,0.4116943724938975,0,0,0,0.38754685948515544,0,0,6.178846069964493
9,26,female,4,15,325,right,change,valid,anti,3,0.7613983049777744,1,f,1,change,1.135844715176063,0.41356048599669326,0,0,0,0.3874528839260165,0,0,5.080973573945812
9,26,female,5,15,15,left,same,valid,anti,3,0.5213728642193018,1,j,1,same,0.9521189724109718,0.4128823731558504,0,0,0,0.38740124547985033,0,0,4.865584483064595
9,26,female,6,75,25,left,change,valid,anti,2,0.7693932835391024,1,j,0,same,2.021227891687886,0.4122000212218197,0,0,0,0.38751254076487385,0,0,6.045293973504158
9,26,female,7,105,105,right,same,valid,anti,2,0.6974246848476469,1,j,1,same,1.0812853290372004,0.4115095614283927,0,0,0,0.38741984815351316,0,0,4.646969753343001
9,26,female,8,165,215,left,change,valid,clock,2,0.7293712425816921,1,j,0,same,1.3825876442351728,0.41080711527514907,0,0,0,0.3875090126748546,0,0,5.300894339401566
9,26,female,9,75,125,left,change,valid,clock,1,0.2654321977570362,0,f,1,change,0.9416145578070427,0.41008875308378884,0,0,0,0.38744486553332536,0,0,4.211566562917142
9,26,female,10,165,215,right,change,valid,clock,2,0.7372504355589626,1,j,0,same,2.757238363064971,0.4120088439706106,0,0,0,0.3874804671977472,0,0,6.774186999169615
9,26,female,11,75,75,right,same,valid,clock,2,1.4172902837635775,1,j,1,same,2.18952368184182,0.41133320328243267,0,0,0,0.38740605651400983,0,0,6.7059495187677385
9,26,female,12,105,15,left,same,catch,anti,2,0.8253603786215535,1,f,0,change,1.5352039494136989,0,0,0,0,0.3874974661885062,0,0,7.047430714676011
9,26,female,13,135,75,left,change,catch,anti,2,1.6559336744248867,1,j,0,same,1.5927651008787507,0,0,0,0,0.38743171537134913,0,0,8.264474160248938
9,26,female,14,15,15,right,change,catch,clock,3,0.6479518460255349,1,j,0,same,1.0798744127314421,0,0,0,0,0.38745352539990563,0,0,6.283242971399886
9,26,female,15,105,105,left,same,valid,clock,1,0.6879299461943447,0,f,0,change,1.9676060159763438,0.41064473333817636,0,0,0,0.38749810765875736,0,0,6.114817283294542
9,26,female,16,105,55,left,change,valid,anti,2,2.0013656925730174,1,f,1,change,1.9007271719601704,0.4124783754079036,0,0,0,0.38746186452772235,0,0,6.750260758115473
9,26,female,17,105,155,right,change,valid,clock,1,0.2893642120543518,0,f,1,change,0.942981854055688,0.4118264992317491,0,0,0,0.38741632005985593,0,0,4.185865049817949
9,26,female,18,165,115,left,change,valid,anti,2,1.1133877643187589,1,j,0,same,1.3122827015722578,0.4135479661657352,0,0,0,0.38744839363062056,0,0,5.755135299143149
9,26,female,19,45,45,right,same,valid,anti,2,0.6572611994488398,1,j,1,same,2.5024911541113397,0.41292137283270297,0,0,0,0.3874156785859668,0,0,6.734139940832392
9,26,female,20,165,165,right,same,valid,anti,3,1.2093996725925535,1,j,1,same,1.0869283527790685,0.4122905730287936,0,0,0,0.38750291869655484,0,0,5.312873817445507
9,26,female,21,45,45,left,same,valid,clock,2,2.4733548824951868,1,f,0,change,1.2254694929033576,0.4116522367200261,0,0,0,0.38751799327292247,0,0,7.152398204903875
9,26,female,22,135,135,right,same,valid,clock,3,1.0174589265880059,1,j,1,same,1.0404396388257737,0.411003021244701,0,0,0,0.3875157481234055,0,0,4.885565675122052
9,26,female,23,135,185,left,change,valid,clock,2,1.209331997361005,1,f,1,change,4.026203785193502,0.41033953824807884,0,0,0,0.3874487143657461,0,0,8.593548658169311
9,26,female,24,15,15,right,same,valid,clock,1,1.1293334599176887,0,j,1,same,2.962583295058721,0.4096605507314587,0,0,0,0.38742081035888987,0,0,7.637543652126624
9,26,female,25,105,105,left,same,valid,anti,1,0.29734379530418664,0,f,0,change,1.3975098722439725,0.4114853854309629,0,0,0,0.3874050943086331,0,0,4.743706524277513
9,26,female,26,135,135,left,same,valid,clock,2,0.9852827220965992,1,j,1,same,1.9298916683110292,0.4131431109087693,0,0,0,0.3874862404409214,0,0,5.872281123552966
9,26,female,27,15,65,left,change,valid,clock,2,0.7533597063593334,1,j,0,same,2.5365555296120874,0.412544398759766,0,0,0,0.3874580156953016,0,0,6.413344272557879
9,26,female,28,135,135,right,same,valid,anti,3,0.6572903863961983,1,j,1,same,2.446667107145913,0.41193948890976106,0,0,0,0.3874329983118514,0,0,5.992681453011755
9,26,female,29,165,135,right,change,catch,anti,1,0.2094285388047865,0,f,1,change,0.5262640835062484,0,0,0,0,0.3873720585324918,0,0,4.957238555507502
9,26,female,30,15,75,left,change,catch,clock,3,0.6642327104236756,1,j,0,same,1.9559280294779455,0,0,0,0,0.38747725983921555,0,0,7.156817301252886
9,26,female,31,45,45,right,same,valid,clock,3,0.4947639898491616,1,j,1,same,1.0436790693020157,0.4113253434628556,0,0,0,0.38745609128454817,0,0,4.965016396010469
9,26,female,32,165,165,right,same,valid,clock,1,0.28133234889173764,0,f,0,change,1.4462463019190182,0.41069889144099087,0,0,0,0.3874387715586636,0,0,4.9225776116218185
9,26,female,33,135,85,left,change,valid,anti,3,0.4014141878069495,1,j,0,same,1.5101038157299627,0.4123682524713054,0,0,0,0.387431073901098,0,0,4.631399959973351
9,26,female,34,15,65,right,change,valid,clock,2,2.113294430233509,1,f,1,change,1.703232566731458,0.411774895665447,0,0,0,0.3874243384489091,0,0,6.732937502729328
9,26,female,35,15,325,left,change,valid,anti,2,1.29742269628332,1,f,1,change,0.9864665575296385,0.41117156935960447,0,0,0,0.38747982572749606,0,0,5.384429308571271
9,26,female,36,45,355,right,same,catch,clock,1,0.24937648981722305,0,f,0,change,0.7496298710102565,0,0,0,0,0.3875032394316804,0,0,5.425250943604624
9,26,female,37,105,55,right,change,valid,anti,2,0.7359068737496273,1,f,1,change,1.1432623694927315,0.4105553202000199,0,0,0,0.3874217725642666,0,0,5.098908151561773
9,26,female,38,45,95,left,change,valid,clock,2,0.5213994852856558,1,f,1,change,1.3595113527626381,0.4099225276327026,0,0,0,0.3874759768950753,0,0,5.036214908308466
9,26,female,39,45,65,right,same,catch,anti,2,0.273235055639816,1,j,1,same,3.331674060693331,0,0,0,0,0.3875128614999994,0,0,8.138553969554778
9,26,female,40,75,75,left,same,valid,anti,2,1.4082307834432868,1,j,1,same,2.299425369936216,0.40929342122802814,0,0,0,0.38744390332794865,0,0,7.171504109264788
9,26,female,41,165,115,right,change,valid,anti,2,0.705371553052828,1,j,0,same,1.3540309420131962,0.4086902654263229,0,0,0,0.387404452838382,0,0,5.433807530360355
9,26,female,42,45,45,left,change,catch,anti,1,0.29737330298667075,0,f,1,change,3.0166285418854386,0,0,0,0,0.38741054681304377,0,0,7.889316999760922
9,26,female,43,165,165,left,same,valid,clock,2,0.9121110438281903,1,f,0,change,1.0901565575077257,0.40810972408624957,0,0,0,0.3874740524806839,0,0,5.380863048427273
9,26,female,44,45,95,right,change,valid,clock,1,0.42539816128919483,0,f,1,change,1.6354986413607548,0.4075487138880763,0,0,0,0.38740092474472476,0,0,5.517271937682381
9,26,female,45,15,15,right,same,valid,anti,3,1.0414412963909854,1,j,1,same,0.7037771759351017,0.40918265765180173,0,0,0,0.3875491046346724,0,0,4.7054273610629025
9,26,female,46,135,85,right,same,catch,clock,2,0.7053163865166425,1,j,1,same,2.212967215680692,0,0,0,0,0.38748944779581507,0,0,7.718242355585971
9,26,female,47,45,355,left,change,valid,anti,2,1.14420276653982,1,f,1,change,0.9759473890808295,0.4085963253640113,0,0,0,0.3874884855868004,0,0,5.484282347475528
9,26,female,48,75,75,right,same,valid,anti,2,0.3533647739823209,1,j,1,same,2.579171039364155,0.4080315401572665,0,0,0,0.38746378894211375,0,0,5.760114400007296
9,26,female,49,45,355,right,change,valid,anti,1,0.24942652458776138,0,f,1,change,0.5894239971858042,0.4074853799454675,0,0,0,0.38746282673309906,0,0,3.866681078390684
9,26,female,50,45,45,left,same,valid,anti,2,0.5773476569629565,1,f,0,change,1.3557690087218361,0.40907703092952785,0,0,0,0.3874634682033502,0,0,5.2044170436347486
9,26,female,51,135,135,left,same,valid,anti,2,0.7694603173003998,1,j,1,same,0.9704284900544735,0.4085066713673595,0,0,0,0.3874525631945289,0,0,4.680680678113276
9,26,female,52,105,155,left,change,valid,clock,2,1.089302117623447,1,j,0,same,1.1277111787931062,0.407956865106494,0,0,0,0.3874519217206398,0,0,5.29453254697728
9,26,female,53,75,125,right,change,valid,clock,2,0.8253927729274437,1,f,1,change,1.7724598374770721,0.4074248391710343,0,0,0,0.3873884160529997,0,0,6.14164938970498
9,26,female,54,135,85,right,change,valid,anti,1,1.3849088084316463,0,f,1,change,1.5648081743966031,0.40690800950786854,0,0,0,0.38747533542482415,0,0,5.8017641745937
9,26,female,55,75,75,left,same,valid,clock,2,1.8493558985865093,1,j,1,same,1.5541565421081032,0.40842101793460794,0,0,0,0.38741215049594757,0,0,6.701235987056862
9,26,female,56,75,25,right,change,valid,anti,2,0.46536824306167546,1,j,0,same,1.160859212428477,0.4078854690466721,0,0,0,0.38746475114749046,0,0,4.743775803188328
9,26,female,57,15,15,left,same,valid,clock,2,1.1933231168331986,1,j,1,same,3.8748037097575434,0.40736691187860796,0,0,0,0.3874708451257902,0,0,8.127372802639002
9,26,female,58,15,185,left,change,catch,anti,1,0.28942322741932003,0,f,1,change,1.008437273078016,0,0,0,0,0.38739034046739107,0,0,5.986883513931389
9,26,female,1,135,135,left,same,valid,anti,1,0.26361683374852873,0,f,0,change,0.5734394925675588,0.4068628878317421,0,0,0,0.3873348531924421,0,0,4.081063700676168
9,26,female,2,105,15,left,same,catch,anti,2,0.9934194658308115,1,j,1,same,1.262085641563317,0,0,0,0,0.3874387715550256,0,0,6.938311942401924
9,26,female,3,15,15,right,same,valid,clock,1,0.22419873809849378,0,f,0,change,1.372718286296731,0.40833910424378767,0,0,0,0.38743620567038306,0,0,5.0703245075419545
9,26,female,4,75,125,right,change,valid,clock,1,0.23345164203783497,0,f,1,change,0.8958545553468866,0.409905865862663,0,0,0,0.3874538461313932,0,0,4.054906742891035
9,26,female,5,75,125,left,change,valid,clock,3,0.5293886906038097,1,j,0,same,1.1864940125051362,0.41144752273788043,0,0,0,0.38744582774234004,0,0,4.942209843251476
9,26,female,6,45,45,left,same,valid,clock,3,0.4092263470265607,1,j,1,same,1.639928001251974,0.4109084651543399,0,0,0,0.38744743142160587,0,0,5.003391459194972
9,26,female,7,45,45,right,same,valid,anti,3,0.3373744961245393,1,j,1,same,1.0110910401854198,0.4103561834619933,0,0,0,0.38743043242720887,0,0,4.346345152658614
9,26,female,8,15,75,left,change,catch,clock,3,0.3291293437250715,1,j,0,same,0.8792831044120248,0,0,0,0,0.38746282673309906,0,0,5.877636768113007
9,26,female,9,105,155,left,change,valid,clock,2,1.2473783064633608,1,j,0,same,1.8560105226970336,0.40978854815117227,0,0,0,0.3874384508199,0,0,5.989091458421171
9,26,female,10,45,355,right,same,catch,clock,1,0.26542417936434504,0,f,0,change,1.0308255864947569,0,0,0,0,0.38741407491033897,0,0,6.1115316668765445
9,26,female,11,165,215,right,change,valid,clock,2,0.4082955720514292,1,f,1,change,1.2587692345186952,0.4092328289601026,0,0,0,0.3874644304123649,0,0,5.25743561552008
9,26,female,12,135,85,right,change,valid,anti,3,0.5374090072837134,1,j,0,same,1.5720446130508208,0.40869937738668644,0,0,0,0.38742465918767266,0,0,5.0147448611714935
9,26,female,13,45,355,right,change,valid,anti,2,0.44147311336928396,1,f,1,change,1.073940802452853,0.4081855609171656,0,0,0,0.38743716787575977,0,0,4.374006040092354
9,26,female,14,15,65,right,change,valid,clock,1,0.2253476133410004,0,f,1,change,0.6426414251945971,0.40768893721213745,0,0,0,0.3875006735470379,0,0,3.932909470426239
9,26,female,15,135,75,left,change,catch,anti,2,0.7214163559801818,1,j,0,same,1.3302612199768191,0,0,0,0,0.38742305550476885,0,0,6.61066535977443
9,26,female,16,15,185,left,change,catch,anti,2,0.6481372312555322,1,f,1,change,2.6214629268033605,0,0,0,0,0.38741054681668174,0,0,8.29512558726492
9,26,female,17,135,135,right,same,valid,clock,1,0.2876598225957423,0,f,0,change,1.834636696268717,0.409134865415778,0,0,0,0.38744967657112284,0,0,5.387746357086144
9,26,female,18,105,105,right,same,valid,clock,3,0.9133939865932916,1,j,1,same,1.1761441925009422,0.41065641079352827,0,0,0,0.38749906986413407,0,0,4.860331794654485
9,26,female,19,45,45,left,change,catch,anti,1,0.15342584206155152,0,f,1,change,0.43974338578846073,0,0,0,0,0.3874730902753072,0,0,5.253557600281056
9,26,female,20,135,85,left,change,valid,anti,3,0.3521799763402669,1,j,0,same,1.6256203028242453,0.41011698888832726,0,0,0,0.3874750146896986,0,0,5.252923826556071
9,26,female,21,165,215,left,change,valid,clock,1,0.34535696599414223,0,f,1,change,2.025447169700783,0.40956869571403515,0,0,0,0.3874625059979735,0,0,4.993885815525573
9,26,female,22,75,75,right,same,valid,anti,2,0.24132923133583972,1,j,1,same,3.0373548029529047,0.411055149654245,0,0,0,0.3874910514750809,0,0,6.248563104105415
9,26,female,23,15,325,right,change,valid,anti,2,0.3292464122532692,1,j,0,same,1.89849100272113,0.41053588086456666,0,0,0,0.3874968247146171,0,0,5.247388570005569
9,26,female,24,15,15,right,same,valid,anti,2,0.29728862876436324,1,j,1,same,0.9258924149871746,0.41000227244503423,0,0,0,0.3874416581784317,0,0,4.124605815835821
9,26,female,25,135,135,right,same,valid,anti,2,0.7294411629627575,1,f,0,change,1.115037628707796,0.4094655549106827,0,0,0,0.3873913026727678,0,0,5.061034398262564
9,26,female,26,45,95,right,change,valid,clock,2,0.6013884006570152,1,j,0,same,1.1530303749532322,0.4089508524573312,0,0,0,0.3874737317455583,0,0,4.91756804086981
9,26,female,27,165,115,left,change,valid,anti,2,0.3133696748263901,1,f,1,change,1.3401536708843196,0.40845573678933694,0,0,0,0.3874246591840347,0,0,4.7544290391524555
9,26,female,28,105,105,left,same,valid,clock,2,0.21742640398952062,1,j,1,same,0.731414008194406,0.40797792847198144,0,0,0,0.38737815251079155,0,0,3.906602087601641
9,26,female,29,75,75,right,same,valid,clock,1,0.2013973171087855,0,f,0,change,1.0995903563743923,0.4075153047684127,0,0,0,0.38748078793287277,0,0,4.533386981722288
9,26,female,30,135,185,right,change,valid,clock,2,1.4174731031052943,1,f,1,change,1.0814857888435654,0.4088643309572198,0,0,0,0.38749137221020646,0,0,5.576255231200776
9,26,female,31,165,135,right,change,catch,anti,3,0.7933329954903456,1,f,1,change,1.1471060660078365,0,0,0,0,0.3874272250723152,0,0,6.907231691766356
9,26,female,32,45,355,left,change,valid,anti,2,0.6320199420624704,1,f,1,change,0.7975554808581364,0.4083808877458265,0,0,0,0.3875099748802313,0,0,4.925614657880942
9,26,female,33,165,115,right,change,valid,anti,2,0.3933399875277246,1,f,1,change,2.549237739556702,0.4079140672707302,0,0,0,0.38743716787939775,0,0,5.954229413258872
9,26,female,34,75,75,left,same,valid,anti,2,0.31328371765994234,1,f,0,change,1.8399907371531299,0.40746183968506966,0,0,0,0.38746667556188186,0,0,5.361214138541982
9,26,female,35,135,85,right,same,catch,clock,3,0.5053899632803223,1,j,1,same,1.5032339779681934,0,0,0,0,0.3875118992946227,0,0,6.345823636424029
9,26,female,36,165,165,right,same,valid,anti,4,1.3841595698577294,1,j,1,same,1.0535355978136067,0.4070223042453447,0,0,0,0.3874718073348049,0,0,5.802791491012613
9,26,female,37,45,65,right,same,catch,anti,1,0.5694296549663704,0,f,0,change,1.380062492142315,0,0,0,0,0.38758374409007956,0,0,6.829293881131889
9,26,female,38,15,15,right,change,catch,clock,1,0.2721843255167187,0,f,1,change,0.6311481824559451,0,0,0,0,0.3874836745526409,0,0,5.986799160440569
9,26,female,39,15,325,left,change,valid,anti,3,0.6241247122998175,1,f,1,change,1.0016626938195259,0.4065936728714119,0,0,0,0.38744807288821903,0,0,4.732087873882847
9,26,female,40,15,15,left,same,valid,clock,3,0.3134363878489239,1,j,1,same,0.7166996169107733,0.4061742552196358,0,0,0,0.38743235684523825,0,0,4.211921296591754
9,26,female,41,135,135,left,same,valid,clock,3,0.2493671884840296,1,j,1,same,0.771260285993776,0.4057624450642626,0,0,0,0.38748591970215784,0,0,4.110635852091946
9,26,female,42,165,165,left,same,valid,anti,3,0.20942629365526955,1,j,1,same,0.7080278860448743,0.4053567078058763,0,0,0,0.38743107389746,0,0,4.254366495690192
9,26,female,43,165,165,right,same,valid,clock,3,0.26547645928440033,1,j,1,same,0.5314308147462725,0.4049555689461288,0,0,0,0.38745320466478006,0,0,3.9780212660589314
9,26,female,44,15,65,left,change,valid,clock,3,0.24140588716909406,1,f,1,change,1.5960289072645537,0.40453007417429065,0,0,0,0.3874451862720889,0,0,4.927129171806882
9,26,female,45,45,95,left,change,valid,clock,3,0.6414033854271111,1,f,1,change,0.9040400509074971,0.40410625027270464,0,0,0,0.38741215049594757,0,0,4.308047066038853
9,26,female,46,105,55,left,change,valid,anti,3,0.20944938662432833,1,f,1,change,0.9046645232992887,0.40368244452130764,0,0,0,0.3874737317491963,0,0,4.1295133926396375
9,26,female,47,105,155,right,change,valid,clock,3,0.2573852600144164,1,f,1,change,0.8388854819604603,0.40325702634500615,0,0,0,0.3874926551543467,0,0,4.4898294712475035
9,26,female,48,105,105,left,same,valid,anti,3,0.42534363621962257,1,f,0,change,2.212580408438953,0.4028283754678869,0,0,0,0.3874862404409214,0,0,5.682981635956821
9,26,female,49,165,165,left,same,valid,clock,3,0.24148831623824663,1,j,1,same,1.005627628430375,0.40239487040824795,0,0,0,0.3874291494867066,0,0,3.8761328384607623
9,26,female,50,75,25,right,change,valid,anti,3,0.16140959487165674,1,f,1,change,0.8717506267166755,0.4019548771850328,0,0,0,0.3874426203838084,0,0,4.086124589135579
9,26,female,51,135,185,left,change,valid,clock,3,0.19337700042888173,1,f,1,change,1.171240143790783,0.401506738112539,0,0,0,0.38741824447424733,0,0,4.709511288612703
9,26,female,52,15,15,left,same,valid,anti,4,0.5454851319736918,1,j,1,same,1.0400268519915699,0.40104876056465744,0,0,0,0.3874329983118514,0,0,4.637431394636224
9,26,female,53,45,45,left,same,valid,anti,3,0.3212030026006687,1,j,1,same,1.4872385683374887,0.4005792055924995,0,0,0,0.387484316022892,0,0,4.931002696746873
9,26,female,54,105,55,right,change,valid,anti,1,0.5375020206374757,0,f,1,change,1.0645326624398876,0.40009627628019784,0,0,0,0.3874679585060221,0,0,4.480004695571552
9,26,female,55,105,105,right,same,valid,anti,3,0.4654471440408088,1,j,1,same,2.063843722175079,0.40139186422183903,0,0,0,0.38746026084845653,0,0,5.737633073236793
9,26,female,56,45,45,right,same,valid,clock,3,0.24935660420669592,1,j,1,same,0.7227897462107649,0.40093840125871183,0,0,0,0.3874217725642666,0,0,3.875608756337897
9,26,female,57,75,75,left,same,valid,clock,3,0.2013905816602346,1,j,1,same,0.8615480243970524,0.4004730661929516,0,0,0,0.38740413209961844,0,0,4.181475140416296
9,26,female,58,75,25,left,change,valid,anti,3,0.3934028517251136,1,f,1,change,0.9394239330395067,0.3999940055452917,0,0,0,0.38746603408799274,0,0,4.663507847762958
9,26,female,1,45,45,left,same,valid,clock,2,1.6321376520609192,1,f,0,change,1.4785472725925501,0.39951061639766383,0,0,0,0.38738296354858903,0,0,6.313252285563067
9,26,female,2,105,105,left,same,valid,clock,2,0.33745692519732984,1,f,0,change,1.0716674278810387,0.39904673579424094,0,0,0,0.38745448760528234,0,0,4.661337108605949
9,26,female,3,75,25,right,change,valid,anti,1,0.24144533765502274,0,f,1,change,0.7161161986914522,0.3986003654283464,0,0,0,0.3874907307399553,0,0,4.18802969499302
9,26,female,4,15,325,left,change,valid,anti,3,0.7053612895142578,1,j,0,same,0.781062930906046,0.3998932459002167,0,0,0,0.38746667556188186,0,0,4.710046596479515
9,26,female,5,45,355,right,same,catch,clock,1,0.26539723756650346,0,f,0,change,0.5561014833365334,0,0,0,0,0.38749650397949154,0,0,5.206615045324725
9,26,female,6,165,115,left,change,valid,anti,3,1.128024216828635,1,f,1,change,1.2877181964904594,0.39942076123765774,0,0,0,0.3874487143657461,0,0,5.496834659468732
9,26,female,7,105,155,left,change,valid,clock,1,0.2253867430954415,0,j,0,same,1.5332102563588705,0.3989670768161237,0,0,0,0.3874329983154894,0,0,5.181145744863898
9,26,female,8,15,75,left,change,catch,clock,1,0.3373991927728639,0,f,1,change,1.5640143535638344,0,0,0,0,0.3874891270606895,0,0,6.267627633558732
9,26,female,9,15,185,left,change,catch,anti,1,0.2563210589942173,0,f,1,change,0.7548960303174681,0,0,0,0,0.38747533542482415,0,0,5.861925209570472
9,26,female,10,105,155,right,change,valid,clock,3,0.5682766101599555,1,f,1,change,1.2275395210490387,0.40026788190640605,0,0,0,0.3874034906293673,0,0,4.692871200244554
9,26,female,11,135,135,right,same,valid,clock,3,0.2573865429549187,1,j,1,same,0.6903794046629628,0.39979608472719513,0,0,0,0.38749137221020646,0,0,4.235740091193293
9,26,female,12,45,65,right,same,catch,anti,3,0.2173770106928714,1,f,0,change,0.9552342781789775,0,0,0,0,0.38750772973071435,0,0,5.84627715669194
9,26,female,13,15,325,right,change,valid,anti,1,0.3197885582012532,0,f,1,change,1.5362719992590428,0.39933406861359955,0,0,0,0.3874015662149759,0,0,4.899625765592646
9,26,female,14,15,15,right,same,valid,clock,3,0.7614265297161182,1,j,1,same,0.8539946988821612,0.4006227822355182,0,0,0,0.38750099428216345,0,0,4.455917445196974
9,26,female,15,45,95,right,change,valid,clock,3,0.2254143263635342,1,f,1,change,0.8196702067325532,0.4001685513379255,0,0,0,0.3875311434348987,0,0,4.080637442941224
9,26,female,16,75,75,left,same,valid,anti,3,0.6493605171817762,1,j,1,same,1.9342668238678016,0.39970233314113757,0,0,0,0.3874634682069882,0,0,5.895970982401195
9,26,female,17,135,135,left,same,valid,anti,2,0.6253303577614133,1,f,0,change,1.253646123332146,0.399250374773185,0,0,0,0.38745416687015677,0,0,4.677853072265862
9,26,female,18,15,65,left,change,valid,clock,2,0.30540644909706316,1,f,1,change,0.9637600743080839,0.3988159108132502,0,0,0,0.3874336397857405,0,0,4.28465164255249
9,26,female,19,15,65,right,change,valid,clock,2,0.481408876425121,1,f,1,change,0.9873158656409942,0.3983971757828356,0,0,0,0.3874958625092404,0,0,4.744988825568726
9,26,female,20,165,215,right,change,valid,clock,2,0.4894307967842906,1,f,1,change,1.0877802267714287,0.3979925217947208,0,0,0,0.38746090231870767,0,0,4.753634897584561
9,26,female,21,105,55,left,change,valid,anti,2,0.6093044782392099,1,f,1,change,2.6114745759223297,0.39760040553245063,0,0,0,0.3874217725642666,0,0,6.193899478868843
9,26,female,22,45,45,left,change,catch,anti,3,1.409420712854626,1,j,0,same,0.8089528236268961,0,0,0,0,0.3874445447981998,0,0,6.6575379943496955
9,26,female,23,135,85,left,change,valid,anti,1,0.24816635405659326,0,f,1,change,3.0151242914944305,0.3972193764298383,0,0,0,0.38754365213026176,0,0,6.5290878405248804
9,26,female,24,165,115,right,change,valid,anti,1,0.20136171544800163,0,f,1,change,2.118471745750867,0.39833392960011177,0,0,0,0.38740188695373945,0,0,5.3105597094399855
9,26,female,25,135,85,right,same,catch,clock,3,0.6489826905344671,1,j,1,same,2.39524868562512,0,0,0,0,0.3875218420980673,0,0,7.421932291410485
9,26,female,26,45,355,right,change,valid,anti,3,0.25611418447078904,1,f,1,change,0.9952313017492997,0.3995243666309104,0,0,0,0.3874862404372834,0,0,4.618650395532313
9,26,female,27,105,55,right,change,valid,anti,3,0.4173986924215569,1,f,1,change,0.8945475574073498,0.3990913827340117,0,0,0,0.38746314746822463,0,0,4.2713058304616425
9,26,female,28,135,85,right,change,valid,anti,3,0.3293609148931864,1,f,1,change,0.9114176132643479,0.3986747187073632,0,0,0,0.3874910514714429,0,0,4.291918551094568
9,26,female,29,45,45,right,same,valid,clock,3,0.31340078618814005,1,j,1,same,0.8703150137662305,0.39827274285872166,0,0,0,0.3874538461350312,0,0,4.384818040227401
9,26,female,30,165,165,left,same,valid,clock,3,0.201392506074626,1,j,1,same,0.7940809511237603,0.3978839293608203,0,0,0,0.387448072891857,0,0,4.03179068019017
9,26,female,31,165,215,left,change,valid,clock,4,2.1531811207278224,1,f,1,change,1.1450180766623816,0.39750684667226377,0,0,0,0.3874891270606895,0,0,6.5581686248624464
9,26,female,32,105,105,right,same,valid,clock,3,0.23336119457235327,1,j,1,same,0.8166334812121931,0.3971401470014252,0,0,0,0.3873983588600822,0,0,4.084670052779984
9,26,female,33,135,185,right,change,valid,clock,3,0.7692335571664444,1,f,1,change,0.8738168060372118,0.39678255668846074,0,0,0,0.38747052439066465,0,0,4.996616559197719
9,26,female,34,45,45,left,same,valid,anti,3,0.2334102671375149,1,j,1,same,0.6293373087464715,0.39643286739435823,0,0,0,0.3874920136840956,0,0,3.8507203082153865
9,26,female,35,45,95,left,change,valid,clock,3,0.32144002627319423,1,f,1,change,0.8151446261399542,0.3960899279979363,0,0,0,0.3875305019610096,0,0,4.276573272712994
9,26,female,36,15,15,left,same,valid,anti,3,0.16944081656765775,1,j,1,same,0.5993661621287174,0.3957526371121355,0,0,0,0.38741920667962404,0,0,3.8890187155702733
9,26,female,37,75,25,left,change,valid,anti,3,0.17741590951845865,1,f,1,change,0.8324091868962569,0.39541993613999027,0,0,0,0.38754044476809213,0,0,4.31534444447243
9,26,female,38,105,105,left,same,valid,anti,3,0.2734464204622782,1,j,1,same,1.0534364904851827,0.39509080279851627,0,0,0,0.3874945795687381,0,0,4.560537257941178
9,26,female,39,165,165,right,same,valid,anti,3,0.1931887285754783,1,j,1,same,1.378865827278787,0.3947642450455269,0,0,0,0.3874509595152631,0,0,4.668129969799338
9,26,female,40,165,165,right,same,valid,clock,3,0.1614394232929044,1,j,1,same,0.569195517909975,0.39441673747336914,0,0,0,0.38748271234726417,0,0,3.594475584319298
9,26,female,41,75,125,left,change,valid,clock,3,0.4013500406690582,1,f,1,change,1.9652149314024427,0.3940697256425989,0,0,0,0.38744326185405953,0,0,5.36523263600975
9,26,female,42,45,45,right,same,valid,anti,3,0.15342937015157077,1,j,1,same,0.49427967895462643,0.3937220682927227,0,0,0,0.3874499973062484,0,0,3.5416462464927463
9,26,female,43,135,135,left,same,valid,clock,3,0.14543695747488528,1,j,1,same,0.6641130760071974,0.39337263271624806,0,0,0,0.3874519217206398,0,0,3.8315213905079872
9,26,female,44,45,355,left,change,valid,anti,3,0.27339446127734846,1,f,1,change,0.9759999897360103,0.39302028802118266,0,0,0,0.38751350297388854,0,0,4.488291543613741
9,26,female,45,165,135,right,change,catch,anti,3,0.16139804838894634,1,j,0,same,0.8442626158175699,0,0,0,0,0.38746475114749046,0,0,5.815038462624216
9,26,female,46,75,75,left,same,valid,clock,3,0.3520074205407582,1,f,0,change,1.3132747370582365,0.39266389851683464,0,0,0,0.3874464692125912,0,0,4.4935038193216315
9,26,female,47,75,75,right,same,valid,clock,3,0.24944384431364597,1,j,1,same,0.7102011910865258,0.39230231716239006,0,0,0,0.3874759768950753,0,0,3.9753148983036226
9,26,female,48,135,75,left,change,catch,anti,3,0.2574247105039831,1,j,0,same,0.9779853436593839,0,0,0,0,0.38753852035370073,0,0,6.064833512518817
9,26,female,49,135,135,right,same,valid,anti,1,0.2883170100249117,0,f,0,change,0.9135591654703603,0.3919343790197414,0,0,0,0.38741439564546454,0,0,4.19829067120736
9,26,female,50,135,185,left,change,valid,clock,2,0.7533609892998356,1,j,0,same,1.7030487851807266,0.3929108980259042,0,0,0,0.3874490351008717,0,0,5.624642058970494
9,26,female,51,75,75,right,same,valid,anti,2,0.7454089893217315,1,j,1,same,0.8856634995099739,0.3925582135753165,0,0,0,0.38744197891355725,0,0,4.6792213307198836
9,26,female,52,15,15,right,change,catch,clock,2,0.6894056511046074,1,f,1,change,0.85920376723152,0,0,0,0,0.38741247123107314,0,0,6.095984004270576
9,26,female,53,105,15,left,same,catch,anti,1,0.24030736742861336,0,f,0,change,1.2575658342066163,0,0,0,0,0.38742113109401544,0,0,6.142829376309237
9,26,female,54,165,165,left,same,valid,anti,3,0.5522446366594522,1,j,1,same,1.5744462819056935,0.392200035817565,0,0,0,0.38747180733116693,0,0,5.573061986662651
9,26,female,55,105,105,right,same,valid,anti,1,1.2172897705859214,0,j,1,same,4.738088838654221,0.39183522353563566,0,0,0,0.38744775215309346,0,0,8.713619271336938
9,26,female,56,75,125,right,change,valid,clock,1,0.17746337840071646,0,f,1,change,0.5002232320439362,0.39280427761897324,0,0,0,0.3873909819412802,0,0,3.5766080404609966
9,26,female,57,15,15,right,same,valid,anti,2,0.5854366110834235,1,j,1,same,2.042606529150362,0.39371244990040155,0,0,0,0.3875083712009655,0,0,5.698954914827482
9,26,female,58,15,15,left,same,valid,clock,3,0.9133259906266176,1,j,1,same,0.714128278879798,0.39337827678639103,0,0,0,0.38748014646262163,0,0,4.459812138691632
9,26,female,1,75,125,right,change,valid,clock,1,0.2719380005073617,0,f,1,change,0.4534092920985131,0.39304123441129407,0,0,0,0.38755712302736356,0,0,3.841174572589807
9,26,female,2,135,135,right,same,valid,anti,1,0.40937548912188504,0,f,0,change,1.759152513670415,0.393927965171657,0,0,0,0.38749073073631735,0,0,5.179775561991846
9,26,female,3,105,55,right,change,valid,anti,2,1.0813382504238689,1,f,1,change,0.960163344272587,0.3947810389204022,0,0,0,0.3874833538175153,0,0,4.783802334441134
9,26,female,4,165,215,right,change,valid,clock,2,0.4013493991988071,1,f,1,change,0.7943551801399735,0.394458686452032,0,0,0,0.3874932966209599,0,0,4.224862660976214
9,26,female,5,45,45,right,same,valid,anti,3,0.7693916798598366,1,j,1,same,2.5240757038845913,0.3941368001062018,0,0,0,0.38743813008477446,0,0,6.2681347166872
9,26,female,6,165,135,right,change,catch,anti,3,0.7293696389024262,1,f,1,change,0.9082169918074214,0,0,0,0,0.3874464692125912,0,0,6.0490404871088685
9,26,female,7,135,135,left,same,valid,clock,3,0.5041496783669572,1,j,1,same,1.2088425546971848,0.39381438164086285,0,0,0,0.38745128025038866,0,0,4.9972609172000375
9,26,female,8,135,185,right,change,valid,clock,1,0.4654516343434807,0,f,1,change,0.870924090842891,0.3934904401041285,0,0,0,0.38746763776725857,0,0,4.387908007873193
9,26,female,9,105,15,left,same,catch,anti,3,0.44943986718863016,1,j,1,same,0.8230225361730845,0,0,0,0,0.38740573577888426,0,0,5.768327158104512
9,26,female,10,75,75,right,same,valid,clock,3,0.9506535310429172,1,j,1,same,1.3039394040497427,0.3943394456643626,0,0,0,0.3874519217170018,0,0,5.469929104583571
9,26,female,11,75,25,right,change,valid,anti,1,0.3293102386560349,0,f,1,change,1.8121188056320534,0.3940221073747333,0,0,0,0.3874217725642666,0,0,5.44850492264959
9,26,female,12,45,45,left,change,catch,anti,3,0.36944549930558424,1,j,0,same,1.0080158263808698,0,0,0,0,0.38664366777811665,0,0,5.596799314393138
9,26,female,13,165,165,left,same,valid,clock,3,0.36006109373556683,1,j,1,same,0.7414078115834855,0.39484974634774983,0,0,0,0.3874073394581501,0,0,4.664904010223836
9,26,female,14,45,95,left,change,valid,clock,3,1.1774284182101837,1,f,1,change,1.234892386761203,0.39453635667628684,0,0,0,0.3874169615301071,0,0,5.702580190340086
9,26,female,15,105,105,left,same,valid,anti,3,0.2414074908447219,1,j,1,same,1.1691858316953585,0.3942236119628034,0,0,0,0.3875032394316804,0,0,4.808019482767122
9,26,female,16,105,155,right,change,valid,clock,3,0.2893840976685169,1,f,1,change,1.175145100824011,0.39391056166594585,0,0,0,0.38749778692726977,0,0,4.585627769552957
9,26,female,17,135,85,right,same,catch,clock,3,0.3054301835363731,1,j,1,same,0.991821560623066,0,0,0,0,0.3873842464890913,0,0,5.799449745849415
9,26,female,18,135,85,left,change,valid,anti,3,0.18411255000319215,1,j,0,same,0.7485781786817824,0.3935962631278537,0,0,0,0.38744005449916585,0,0,3.7617844707456243
9,26,female,19,165,215,left,change,valid,clock,3,0.2493559627328068,1,f,1,change,1.6324211824103259,0.3932797764561995,0,0,0,0.38747533542482415,0,0,5.184589163240162
9,26,female,20,15,75,left,change,catch,clock,3,0.2094096153996361,1,j,0,same,0.8402004982963263,0,0,0,0,0.3874528839260165,0,0,5.315944540951023
9,26,female,21,15,15,right,change,catch,clock,2,1.6323839770702762,1,f,1,change,1.012632175177714,0,0,0,0,0.3874416581747937,0,0,7.156734230706206
9,26,female,22,75,125,left,change,valid,clock,2,0.7118661300519307,1,f,1,change,0.8102097867995326,0.39296015950412283,0,0,0,0.3874974661885062,0,0,4.577274849958485
9,26,female,23,15,15,right,same,valid,anti,1,0.2814388331389637,0,f,0,change,0.5235628475165868,0.3926364629059601,0,0,0,0.38750291869291686,0,0,3.8931728842362645
9,26,female,24,135,135,left,same,valid,anti,2,0.8734123583308246,1,f,0,change,0.7469010517597781,0.3934914084558556,0,0,0,0.3874634682033502,0,0,4.655840981809888
9,26,female,25,45,355,right,same,catch,clock,1,0.37728524179692613,0,f,0,change,3.54234160147098,0,0,0,0,0.38749361735972343,0,0,8.466282339781174
9,26,female,26,15,185,left,change,catch,anti,1,0.20806380844078376,0,f,1,change,1.070701371980249,0,0,0,0,0.387428828751581,0,0,6.189661277450796
9,26,female,27,15,15,left,same,valid,anti,3,0.4318619476616732,1,j,1,same,1.4642726099409629,0.3931783264640102,0,0,0,0.3874532046611421,0,0,5.418396821893111
9,26,female,28,15,15,left,same,valid,clock,2,1.5054236405267147,1,j,1,same,0.9229381185396051,0.3928618275315608,0,0,0,0.3874339605245041,0,0,5.364004218314221
9,26,female,29,45,45,left,same,valid,clock,3,0.7053388380118122,1,j,1,same,1.2385561505543592,0.39254098185476527,0,0,0,0.38747148659967934,0,0,4.788448511655588
9,26,female,30,165,115,right,change,valid,anti,3,0.2573846185405273,1,j,0,same,1.2212947971529502,0.3922148460496979,0,0,0,0.3874567327547993,0,0,4.821945505722397
9,26,female,31,75,25,left,change,valid,anti,2,1.4974533586173493,1,f,1,change,1.1144686435945914,0.39188245834430313,0,0,0,0.3875122200297483,0,0,5.672267780944821
9,26,female,32,45,355,right,change,valid,anti,1,0.25734484731947305,0,f,1,change,1.1810495241552417,0.3915428336953216,0,0,0,0.3874644304123649,0,0,4.656160434558842
9,26,female,33,165,165,left,same,valid,anti,2,1.1934081117906317,1,j,1,same,0.9695208080484008,0.3924475490029963,0,0,0,0.38738873678812524,0,0,5.1340418598592805
9,26,female,34,45,45,right,same,valid,clock,1,0.1934459586009325,0,f,0,change,0.8316823998211476,0.3921238526670372,0,0,0,0.3874464692125912,0,0,3.9285971790668555
9,26,female,35,15,325,right,change,valid,anti,3,0.529440970520227,1,f,1,change,0.7963934554500156,0.3929825238711476,0,0,0,0.38747533542482415,0,0,4.596181898188661
9,26,female,36,15,15,right,same,valid,clock,3,0.3294019690620189,1,j,1,same,0.763700225030334,0.3926717136943116,0,0,0,0.38666002529862453,0,0,4.288782076779171
9,26,female,37,165,115,left,change,valid,anti,2,1.2653042242163792,1,f,1,change,2.2282534786972974,0.39235605833776777,0,0,0,0.38748591970215784,0,0,6.748808787644521
9,26,female,38,15,325,left,change,valid,anti,1,0.18530568677306292,0,f,1,change,2.569436711150047,0.39203464726232473,0,0,0,0.38749650397949154,0,0,5.840220063171728
9,26,female,39,135,75,left,change,catch,anti,1,0.20137614855411812,0,f,1,change,1.6241445979103446,0,0,0,0,0.3874711658609158,0,0,6.4234673324281175
9,26,female,40,75,75,right,same,valid,anti,4,2.256117071094195,1,j,1,same,2.2211353915154177,0.39288792878100715,0,0,0,0.3874499973062484,0,0,7.8079806737514446
9,26,female,41,45,45,left,same,valid,anti,4,0.857119626714848,1,j,1,same,2.1225944823199825,0.3925797084810335,0,0,0,0.3874814294031239,0,0,5.95144157863615
9,26,female,42,135,85,right,change,valid,anti,3,0.7133565888107114,1,j,0,same,1.6501155289952294,0.39226641002097296,0,0,0,0.3874817501382495,0,0,5.118685997193097
9,26,female,43,135,185,left,change,valid,clock,2,0.6093006294104271,1,f,1,change,1.904866266046156,0.39194713772148065,0,0,0,0.3875016357524146,0,0,5.32839261384288
9,26,female,44,105,105,right,same,valid,anti,3,1.0014388203089766,1,j,1,same,0.7400607216841308,0.39162097431660214,0,0,0,0.3874262628633005,0,0,4.726878164055961
9,26,female,45,105,105,right,same,valid,clock,3,0.22541657151668915,1,j,1,same,0.7907292631571181,0.39128697647022576,0,0,0,0.3874904100011918,0,0,4.175707991962554
9,26,female,46,45,355,left,change,valid,anti,3,0.42535903153111576,1,f,1,change,0.8476332271930005,0.3909441701574788,0,0,0,0.38746314746822463,0,0,4.625261399585725
9,26,female,47,105,55,left,change,valid,anti,3,0.3454031519322598,1,f,1,change,0.9178352136987087,0.39059154587762035,0,0,0,0.38748367455627886,0,0,4.454109458110906
9,26,female,48,15,65,right,change,valid,clock,1,0.22537968691176502,0,f,1,change,0.5258083180851827,0.3902280536639159,0,0,0,0.38748399528776645,0,0,4.007465764672816
9,26,female,49,15,65,left,change,valid,clock,3,0.26538889843868674,1,j,0,same,0.9633902660571039,0.39120449840187993,0,0,0,0.3874397337640403,0,0,4.22887987550348
9,26,female,50,105,105,left,same,valid,clock,1,0.18541345396079123,0,f,0,change,0.47932569811382564,0.3908631388496845,0,0,0,0.38742497992279823,0,0,4.055767276749975
9,26,female,51,165,165,right,same,valid,clock,1,0.20933905354468152,0,f,0,change,1.4844090380756825,0.3917768634053913,0,0,0,0.3874147163805901,0,0,4.750879136525327
9,26,female,52,75,75,left,same,valid,anti,3,0.1452823628715123,1,j,1,same,2.3915554141458415,0.3926160596364461,0,0,0,0.38741535785084125,0,0,5.343368083977111
9,26,female,53,165,165,right,same,valid,anti,4,0.9293800948871649,1,j,1,same,1.661495231302979,0.39231469227821075,0,0,0,0.3874798257238581,0,0,5.830768623840413
9,26,female,54,45,95,right,change,valid,clock,2,2.3373549312491377,1,f,1,change,1.2972469331252796,0.3920076042185566,0,0,0,0.38739451003129943,0,0,6.650910953510902
9,26,female,55,105,155,left,change,valid,clock,4,1.6252120062927133,1,j,0,same,0.9525615876700613,0.3916939389537628,0,0,0,0.38744775215673144,0,0,5.340018641156348
9,26,female,56,75,75,left,same,valid,clock,2,0.7131205273435626,1,f,0,change,1.138214951930422,0.3913728158525564,0,0,0,0.3875308226997731,0,0,4.7476913444952515
9,26,female,57,45,65,right,same,catch,anti,2,0.2174562324071303,1,j,1,same,0.7746248033909069,0,0,0,0,0.38745160098551423,0,0,5.549759576526412
9,26,female,58,135,135,right,same,valid,clock,1,0.35204847470959066,0,f,0,change,0.7133819269256492,0.3910433259939488,0,0,0,0.387448072891857,0,0,3.897127234562504
9,26,female,1,105,105,left,same,valid,clock,3,0.5841876663034782,1,j,1,same,1.9412434666155605,0.39192443544221095,0,0,0,0.38745897790795425,0,0,5.561069358453096
9,26,female,2,105,155,right,change,valid,clock,3,0.35337760340917157,1,f,1,change,1.2914595783222467,0.3916123903629033,0,0,0,0.3874297909605957,0,0,4.316070910812414
9,26,female,3,135,135,right,same,valid,clock,4,0.3133671089381096,1,j,1,same,1.5366568820900284,0.3912927121931502,0,0,0,0.3874891270570515,0,0,4.873174372449284
9,26,female,4,105,55,left,change,valid,anti,3,0.5693023228959646,1,f,1,change,0.9278639772783208,0.39096450210614947,0,0,0,0.3874403752379294,0,0,4.340952944228775
9,26,female,5,15,65,right,change,valid,clock,4,0.3453839077919838,1,j,0,same,1.1527769937565608,0.39062682812520355,0,0,0,0.38748110866799834,0,0,4.7308167983392195
9,26,female,6,165,215,right,change,valid,clock,3,0.41742755863742786,1,f,1,change,1.0146842421272595,0.3902787207148354,0,0,0,0.3874904100011918,0,0,4.619012826860853
9,26,female,7,75,125,left,change,valid,clock,3,0.28144075755335507,1,j,0,same,0.8001390068457113,0.389918201209996,0,0,0,0.38751638959365664,0,0,4.183923957418301
9,26,female,8,45,65,right,same,catch,anti,3,0.18545579107740195,1,j,1,same,0.9077480762280175,0,0,0,0,0.38751799327292247,0,0,5.8305566175477
9,26,female,9,135,85,left,change,valid,anti,3,0.4399438455948257,1,f,1,change,1.157765395953902,0.3895586972602475,0,0,0,0.38745352539990563,0,0,4.517998724753852
9,26,female,10,15,15,left,same,valid,anti,3,0.3294042142115359,1,j,1,same,0.6822596599195094,0.3892132068139289,0,0,0,0.3875346715285559,0,0,4.0803667420186684
9,26,female,11,75,75,left,same,valid,clock,3,0.2174132538275444,1,j,1,same,0.9503417759515287,0.38888060300635724,0,0,0,0.3874519217206398,0,0,4.295538694837887
9,26,female,12,45,45,left,same,valid,anti,3,0.21741934780220618,1,j,1,same,0.7180354810661811,0.3885598288240582,0,0,0,0.3874358849352575,0,0,4.2364614257603534
9,26,female,13,75,75,right,same,valid,anti,1,0.15343321898035356,0,f,0,change,0.8598850098387629,0.38824989070583593,0,0,0,0.38742562139304937,0,0,4.342906866051635
9,26,female,14,135,85,right,same,catch,clock,3,0.1373043833009433,1,j,1,same,2.1227134752589336,0,0,0,0,0.3873935478259227,0,0,7.016265789818135
9,26,female,15,165,165,right,same,valid,anti,4,0.8320659997043549,1,j,1,same,1.467377972901886,0.38915050707529575,0,0,0,0.38753242637903895,0,0,5.728147956655448
9,26,female,16,165,115,left,change,valid,anti,3,0.6093525885953568,1,f,1,change,1.2900573218794307,0.3888234050208856,0,0,0,0.38746859997627325,0,0,5.009451760070078
9,26,female,17,135,135,left,same,valid,clock,3,0.25739167472784175,1,j,1,same,1.0450912685482763,0.388507830299924,0,0,0,0.3874920136804576,0,0,4.536686069037387
9,26,female,18,45,95,left,change,valid,clock,3,0.409411732256558,1,f,1,change,0.6896343356529542,0.3882028183132378,0,0,0,0.3874910514750809,0,0,4.195872965574381
9,26,female,19,15,75,left,change,catch,clock,3,0.3294199302617926,1,f,1,change,0.8469965668446093,0,0,0,0,0.38749522103898926,0,0,5.815091063279397
9,26,female,20,165,135,right,change,catch,anti,3,0.6081745264018537,1,j,0,same,1.765651260233426,0,0,0,0,0.38744582774234004,0,0,6.84502724970298
9,26,female,21,135,185,right,change,valid,clock,1,0.19194940587112796,0,f,1,change,1.705435058720468,0.3879074598223513,0,0,0,0.3874204896201263,0,0,5.447995273640117
9,26,female,22,75,25,left,change,valid,anti,2,0.8332950588737731,1,f,1,change,0.940527905288036,0.38876763163481165,0,0,0,0.3874499973062484,0,0,4.50612957978592
9,26,female,23,165,165,right,same,valid,clock,2,0.6253422249828873,1,f,0,change,1.4943415809430007,0.38845711159892643,0,0,0,0.3874493558323593,0,0,5.300807099290978
9,26,female,24,45,45,left,change,catch,anti,2,0.4732381347021146,1,j,0,same,3.2124453787109815,0,0,0,0,0.38743620567402104,0,0,8.20112180515207
9,26,female,25,135,185,left,change,valid,clock,1,0.26399690554171684,0,f,1,change,1.296992268984468,0.38815689126545905,0,0,0,0.38745737422505044,0,0,5.139891437382175
9,26,female,26,75,75,left,same,valid,anti,2,0.42530097837516223,1,j,1,same,1.7984824070044851,0.3890297908175757,0,0,0,0.3874208103552519,0,0,5.126202758841828
9,26,female,27,45,45,right,same,valid,anti,4,0.8894430488871876,1,j,1,same,1.049917378484679,0.388713229843411,0,0,0,0.38742369697865797,0,0,4.66432091273964
9,26,female,28,105,105,right,same,valid,anti,3,2.761338648138917,1,j,1,same,4.0337324140600685,0.3884076256085406,0,0,0,0.3874490350972337,0,0,9.98269887537026
9,26,female,29,15,15,right,change,catch,clock,3,1.0173806670791237,1,f,1,change,1.182661541737616,0,0,0,0,0.38741054681668174,0,0,6.922731244016177
9,26,female,30,105,105,right,same,valid,clock,2,1.2000444539662567,1,f,0,change,1.3427891560568241,0.3881120678365822,0,0,0,0.38750869193972903,0,0,5.276887593689025
9,26,female,31,105,155,left,change,valid,clock,2,1.3689615091534506,1,j,0,same,2.5550629411736736,0.3878256974907243,0,0,0,0.3875016357524146,0,0,7.29878614370682
9,26,female,32,15,325,right,change,valid,anti,2,0.7614213979468332,1,j,0,same,0.8207408224698156,0.3875477020439467,0,0,0,0.38744294111893396,0,0,4.629505053511821
9,26,female,33,105,55,right,change,valid,anti,4,1.46540031663244,1,f,1,change,1.2368113483971683,0.38727731111645525,0,0,0,0.38743620567038306,0,0,5.570702654924389
9,26,female,34,45,355,right,change,valid,anti,1,0.23331180127934203,0,f,1,change,0.4428057701625221,0.38701379244305917,0,0,0,0.38746571335286717,0,0,4.040100941936544
9,26,female,35,105,105,left,same,valid,anti,3,0.29731204247218557,1,j,1,same,1.5519094678638794,0.38778625617099804,0,0,0,0.38746956218164996,0,0,4.814593281484122
9,26,female,36,165,165,left,same,valid,anti,3,0.19342254489674815,1,j,1,same,0.6395921909861499,0.38751238048291314,0,0,0,0.3874108675518073,0,0,3.608852561650565
9,26,female,37,45,45,right,same,valid,clock,2,1.0014404239846044,1,j,1,same,1.1362712936424941,0.3872459311690777,0,0,0,0.3874368471406342,0,0,5.298887816916249
9,26,female,38,15,15,right,same,valid,clock,3,0.5294566865704837,1,j,1,same,0.6330209581501549,0.3869861949225687,0,0,0,0.3874355642001319,0,0,4.6182138742551615
9,26,female,39,45,95,right,change,valid,clock,3,0.6253977122578362,1,f,1,change,0.8410270341701107,0.3867324915894723,0,0,0,0.3874326775803638,0,0,4.64727349003806
9,26,female,40,135,75,left,change,catch,anti,3,0.33735589345451444,1,j,0,same,1.25557053747616,0,0,0,0,0.3875234457809711,0,0,6.049461613070889
9,26,female,41,135,85,right,change,valid,anti,3,0.3442844258424884,1,f,1,change,0.8993188215426926,0.3864841708332153,0,0,0,0.3874788635184814,0,0,4.6073056534150965
9,26,female,42,75,125,right,change,valid,clock,3,0.16935967043900746,1,j,0,same,0.7806373146449914,0.386240609025428,0,0,0,0.3874570534899249,0,0,4.299681637752656
9,26,female,43,165,215,left,change,valid,clock,3,0.7134460740671784,1,f,1,change,1.0114188320585527,0.38600120633926116,0,0,0,0.3875564815571124,0,0,4.944705808393337
9,26,female,44,105,15,left,same,catch,anti,3,0.22540951533301268,1,j,1,same,2.0302261314900534,0,0,0,0,0.3874689207113988,0,0,6.9693767977259995
9,26,female,45,165,165,left,same,valid,clock,2,0.5760669593473722,1,f,0,change,0.9112434537855734,0.385765384023143,0,0,0,0.387385208698106,0,0,4.863674502023059
9,26,female,46,45,355,right,same,catch,clock,2,0.4893563861041912,1,j,1,same,1.6246882449086115,0,0,0,0,0.38745352539990563,0,0,6.626419255429937
9,26,female,47,45,45,left,same,valid,clock,2,0.3282505279275938,1,j,1,same,1.5079500755637127,0.38553258183478895,0,0,0,0.38748976853094064,0,0,5.259039293971
9,26,female,48,135,135,right,same,valid,anti,3,0.4093376423115842,1,j,1,same,1.7212245560403971,0.3853022556168963,0,0,0,0.3875070882568252,0,0,4.840559722266335
9,26,female,49,15,15,right,same,valid,anti,2,0.5130747904295276,1,f,0,change,1.3168737122468883,0.38507387499738477,0,0,0,0.38747341101043276,0,0,4.571306600224489
9,26,female,50,15,65,left,change,valid,clock,2,0.46542373033662443,1,f,1,change,1.054924383352045,0.3848469211983031,0,0,0,0.38740028327083564,0,0,4.607624785425287
9,26,female,51,75,75,right,same,valid,clock,1,0.20939261640887707,0,f,0,change,1.6697432703222148,0.3846052104626311,0,0,0,0.38751350297388854,0,0,4.908084207232605
9,26,female,52,45,355,left,change,valid,anti,1,0.1374557705494226,0,f,1,change,1.0634405574128323,0.38523294609584874,0,0,0,0.3874644304123649,0,0,4.136503506284498
9,26,female,53,15,185,left,change,catch,anti,1,0.24935628347157035,0,f,1,change,1.3557709331362275,0,0,0,0,0.38746090232234565,0,0,5.9866625270406075
9,26,female,54,165,115,right,change,valid,anti,3,1.1762173202405393,1,f,1,change,1.1042281944610295,0.3859088347731833,0,0,0,0.3875462180149043,0,0,5.688641017219197
9,26,female,55,15,325,left,change,valid,anti,2,0.4572709498133918,1,j,0,same,2.3335981541022193,0.38567989612246534,0,0,0,0.38746667556188186,0,0,6.400868616397929
9,26,female,56,15,15,left,same,valid,clock,3,0.16130246915054158,1,j,1,same,1.4652713808827684,0.3854537034854742,0,0,0,0.3874663548267563,0,0,4.3485518142078945
9,26,female,57,75,25,right,change,valid,anti,2,0.18541698205808643,1,j,0,same,0.9531180640915409,0.3852297400940636,0,0,0,0.38749169294533203,0,0,3.978535405374714
9,26,female,58,135,135,left,same,valid,anti,3,0.15301690405249246,1,j,1,same,2.148450269291061,0.38500750151448104,0,0,0,0.3875330678492901,0,0,5.663264409369731
9,26,female,1,165,135,right,change,catch,anti,1,0.14395483785119723,0,f,1,change,0.7142719684670737,0,0,0,0,0.387493938094849,0,0,5.631422732207284
9,26,female,2,45,65,right,same,catch,anti,1,2.5522946714227146,0,f,0,change,1.0472087655798532,0,0,0,0,0.38750580531632295,0,0,8.029449309648044
9,26,female,3,165,165,left,same,valid,anti,3,1.3920980989350937,1,j,1,same,1.0643299574803677,0.38478649362602746,0,0,0,0.3874528839296545,0,0,6.105074615948979
9,26,female,4,135,135,left,same,valid,anti,3,0.24933671859253081,1,j,1,same,0.8419744874008757,0.3845509397158614,0,0,0,0.3874727695401816,0,0,4.659940304674819
9,26,female,5,135,185,left,change,valid,clock,2,1.7774116758046148,1,f,1,change,0.7922578894576873,0.38431555826744124,0,0,0,0.3874326775803638,0,0,5.62604110805114
9,26,female,6,45,355,left,change,valid,anti,2,0.5934078552018036,1,f,1,change,0.7908238801828702,0.38407976949742123,0,0,0,0.38740669798789895,0,0,4.120640560489846
9,26,female,7,45,95,right,change,valid,clock,2,0.48141529113490833,1,f,1,change,0.8070001847445383,0.38384299637221897,0,0,0,0.38747629763020086,0,0,4.1771031922180555
9,26,female,8,75,25,right,change,valid,anti,3,1.185358928894857,1,j,0,same,0.7699635515964474,0.3836046622073248,0,0,0,0.387474693954573,0,0,5.01084086634728
9,26,female,9,45,45,left,same,valid,clock,3,0.36141844717712956,1,j,1,same,0.7395289419036999,0.38336418829624325,0,0,0,0.38734190937611856,0,0,4.153827723879658
9,26,female,10,15,65,right,change,valid,clock,3,0.38536232869591913,1,f,1,change,0.8186451354667952,0.3831209915536993,0,0,0,0.38746859997627325,0,0,4.339058999972622
9,26,female,11,135,85,right,change,valid,anti,1,0.1374195274147496,0,f,1,change,1.5501457422979001,0.38287448215809045,0,0,0,0.3874637889384758,0,0,4.833226421436848
9,26,female,12,105,55,right,change,valid,anti,2,0.6572836509476474,1,j,0,same,2.7477077020193974,0.3835257498754458,0,0,0,0.3874320361064747,0,0,6.203832663210051
9,26,female,13,75,25,left,change,valid,anti,2,0.3454079629664193,1,f,1,change,1.3245351256919093,0.38328708929545313,0,0,0,0.38751061635048245,0,0,4.569476803109865
9,26,female,14,15,75,left,change,catch,clock,2,0.5051555054924393,1,j,0,same,1.57588510221467,0,0,0,0,0.38741150902205845,0,0,6.501533437338367
9,26,female,15,75,75,right,same,valid,clock,3,0.3598224663801375,1,j,1,same,1.1595733830436075,0.3830455305724258,0,0,0,0.38742273477328126,0,0,4.770706054718175
9,26,female,16,165,115,right,change,valid,anti,3,0.673268797036144,1,f,1,change,0.8751558775438752,0.38280049213342915,0,0,0,0.3874281872813299,0,0,4.63566927274951
9,26,female,17,135,135,right,same,valid,anti,4,1.0173716864774178,1,j,1,same,0.8910252380519523,0.3825513826546325,0,0,0,0.38743139463622356,0,0,4.793993069542921
9,26,female,18,165,215,left,change,valid,clock,1,0.24924947848558077,0,f,1,change,2.151857444529014,0.38229759871368263,0,0,0,0.38747180733116693,0,0,5.530594977535657
9,26,female,19,15,65,left,change,valid,clock,3,0.8253979047003668,1,j,0,same,1.1852088245941559,0.3829713763022094,0,0,0,0.3875118992946227,0,0,4.719537486304034
9,26,female,20,75,75,left,same,valid,anti,2,0.985429298307281,1,j,1,same,0.7215581211567041,0.3827277149343475,0,0,0,0.38752697387099033,0,0,4.879283745885914
9,26,female,21,165,215,right,change,valid,clock,1,0.1134798154598684,0,f,1,change,0.5115522581072582,0.3824798281146042,0,0,0,0.38744294111893396,0,0,3.4107848017447395
9,26,female,22,75,75,left,same,valid,clock,3,0.36945736653069616,1,j,1,same,0.7181121368921595,0.3831370465290219,0,0,0,0.3874682792375097,0,0,4.240819582326367
9,26,female,23,45,95,left,change,valid,clock,2,0.8494296677963575,1,f,1,change,0.8330609218210157,0.3828984698684931,0,0,0,0.3874708451257902,0,0,4.8444707732815
9,26,female,24,15,15,left,same,valid,anti,3,0.9693495351893944,1,j,1,same,0.6519414772847085,0.3826560955589314,0,0,0,0.38747052439066465,0,0,4.70309657479811
9,26,female,25,15,325,right,change,valid,anti,3,0.849453722974431,1,f,1,change,0.9103787503627245,0.38240934613284394,0,0,0,0.38743941302527674,0,0,4.5822815340907255
9,26,female,26,105,105,right,same,valid,anti,3,0.3854274380428251,1,j,1,same,0.6039254199677089,0.38215763095126926,0,0,0,0.38743331905061495,0,0,3.802131737695163
9,26,female,27,135,75,left,change,catch,anti,3,0.21739914145655348,1,j,0,same,0.7956275386241032,0,0,0,0,0.38745352539626765,0,0,5.59670309368812
9,26,female,28,75,125,left,change,valid,clock,1,0.19990204731948324,0,f,1,change,2.0544978048856137,0.381900343901413,0,0,0,0.3874855989670323,0,0,5.296567294193665
9,26,female,29,105,155,right,change,valid,clock,1,0.1454129023004498,0,f,1,change,2.0308922995209286,0.38258558158215294,0,0,0,0.3874471106828423,0,0,5.0705804546232685
9,26,female,30,105,55,left,change,valid,anti,3,0.8494726463759434,1,j,0,same,1.0449158261253615,0.3832245556951189,0,0,0,0.3874852782319067,0,0,4.975441909635265
9,26,female,31,105,155,left,change,valid,clock,1,0.8413096023141406,0,f,1,change,2.5676729855877056,0.38299213865921516,0,0,0,0.38664462998349336,0,0,6.581850465321622
9,26,female,32,165,165,left,same,valid,clock,3,0.537424081863719,1,j,1,same,0.754155772341619,0.38360579732423283,0,0,0,0.38738103913055966,0,0,4.205651876047341
9,26,female,33,135,135,right,same,valid,clock,1,0.1293061973847216,0,f,0,change,0.7149516073986888,0.3833804900728305,0,0,0,0.38753338858441566,0,0,3.919214377168828
9,26,female,34,165,165,right,same,valid,anti,2,0.5293283922910632,1,f,0,change,1.3087077815616794,0.3839732741830696,0,0,0,0.3874548083404079,0,0,5.099170192621386
9,26,female,35,105,15,left,same,catch,anti,1,0.2173372394645412,0,f,0,change,2.6998125620630162,0,0,0,0,0.38737173779372824,0,0,7.702535287338833
9,26,female,36,45,45,right,same,valid,clock,3,0.6558018520554469,1,j,1,same,1.9522376446220733,0.38375354484402213,0,0,0,0.3874509595152631,0,0,5.960948505242413
9,26,female,37,45,45,left,same,valid,anti,4,0.4970524390046194,1,j,1,same,1.1924683562137943,0.3835320571909337,0,0,0,0.38741054681668174,0,0,4.320228286833299
9,26,female,38,135,185,right,change,valid,clock,3,0.6093259675326408,1,f,1,change,2.2105296244335477,0.3833083013676745,0,0,0,0.38747244880141807,0,0,6.085864472490357
9,26,female,39,165,115,left,change,valid,anti,3,0.36938712541450514,1,f,1,change,0.7186843293675338,0.38308176251118137,0,0,0,0.3874605815835821,0,0,4.008671730869537
9,26,female,40,45,45,left,change,catch,anti,3,0.20142842847417342,1,f,1,change,0.8032164657997782,0,0,0,0,0.38744678995135473,0,0,5.581150299309229
9,26,female,41,45,45,right,same,valid,anti,3,0.44020428297517356,1,j,1,same,1.3871302238221688,0.38285191881851965,0,0,0,0.38749810765875736,0,0,4.692117471371603
9,26,female,42,135,135,left,same,valid,clock,3,0.2733768208163383,1,j,1,same,0.6264952697893023,0.3826182395939008,0,0,0,0.3874176030003582,0,0,4.018674514853046
9,26,female,43,45,355,right,same,catch,clock,3,0.3533590007391467,1,f,0,change,1.3912808643981407,0,0,0,0,0.3875532741949428,0,0,6.329908089977835
9,26,female,44,45,355,right,change,valid,anti,2,2.735888591818366,1,j,0,same,1.271005942591728,0.38238018326437667,0,0,0,0.38744294112257194,0,0,7.465252778212744
9,26,female,45,105,105,right,same,valid,clock,1,0.23338524975042674,0,f,0,change,0.600481039389706,0.38213719535284985,0,0,0,0.38746026084845653,0,0,3.726824280463916
9,26,female,46,75,75,right,same,valid,anti,3,0.2890758706671477,1,j,1,same,0.954547583063686,0.38278343847249074,0,0,0,0.3873531351273414,0,0,4.477275555575034
9,26,female,47,135,85,right,same,catch,clock,3,0.27338965024318895,1,j,1,same,0.953822078929079,0,0,0,0,0.387394830766425,0,0,5.971047189203091
9,26,female,48,15,15,left,same,valid,clock,2,0.7674736804292479,1,j,1,same,1.5622073286831437,0.38255078158885963,0,0,0,0.38742305550476885,0,0,5.494835193170729
9,26,female,49,15,325,left,change,valid,anti,2,0.4013712092237256,1,f,1,change,1.253222431485483,0.38231361296245975,0,0,0,0.38749939059925964,0,0,4.538161453216162
9,26,female,50,15,15,right,change,catch,clock,1,0.3293487269365869,0,f,1,change,1.6186013229707896,0,0,0,0,0.3874291494867066,0,0,6.470346060978045
9,26,female,51,15,185,left,change,catch,anti,2,0.41531455190852284,1,f,1,change,0.9694569816456351,0,0,0,0,0.38745224245576537,0,0,6.376767574391124
9,26,female,52,105,105,left,same,valid,clock,1,0.43214996831011376,0,f,0,change,2.260632388148224,0.38207138300773996,0,0,0,0.38743428125599166,0,0,5.627622655745654
9,26,female,53,105,105,left,same,valid,anti,3,0.5854157632638817,1,j,1,same,0.9080996025440982,0.38271598065224904,0,0,0,0.38741054681668174,0,0,4.458534327699454
9,26,female,54,165,165,right,same,valid,clock,1,0.19333979508883203,0,f,0,change,2.1308498982616584,0.38248427146080277,0,0,0,0.3874461484811036,0,0,5.307522983919625
9,26,female,55,15,15,right,same,valid,anti,3,0.5454565865002223,1,j,1,same,0.8393422095869028,0.38309894994708377,0,0,0,0.38740798092840123,0,0,4.3383934734156355
9,26,female,56,75,125,right,change,valid,clock,1,0.16938532929270878,0,f,1,change,0.7640309035268729,0.3828760897377215,0,0,0,0.38743909229378914,0,0,4.064635297861969
9,26,female,57,15,15,right,same,valid,clock,3,2.033394679379853,1,j,1,same,1.334474724742904,0.3834653794083193,0,0,0,0.387448072891857,0,0,6.631282570710027
9,26,female,58,135,85,left,change,valid,anti,3,0.34541694356812513,1,j,0,same,1.2682171457599907,0.3832498265085686,0,0,0,0.38744775215309346,0,0,4.536016052177729
